timestamp,ax,ay,az,vibration,rms
1437,0.0161,0.0735,0.9082,0.2734,0.2734
1457,0.0247,0.0349,0.9060,0.1902,0.4634
1477,0.0388,0.0117,0.9092,0.1343,0.5972
1497,0.0483,0.0183,0.9102,0.0945,0.6915
1517,0.0396,0.0181,0.9133,0.0669,0.7583
1537,0.0298,0.0349,0.9065,0.0449,0.8031
1557,0.0217,0.0388,0.9058,0.0315,0.8342
1577,0.0261,0.0374,0.9063,0.0221,0.8562
1597,0.0334,0.0322,0.9038,0.0147,0.8708
1617,0.0276,0.0208,0.9043,0.0109,0.8810
1637,0.0291,0.0303,0.9041,0.0072,0.8882
1657,0.0598,0.0098,0.9097,0.0128,0.8951
1677,0.0237,0.0281,0.9106,0.0068,0.9000
1697,0.0640,0.0764,0.9116,0.0184,0.9047
1717,0.0161,0.0532,0.9065,0.0090,0.9056
1737,0.0095,0.0405,0.9063,0.0077,0.9060
1757,0.0310,0.0276,0.9065,0.0048,0.9064
1777,0.0435,0.0186,0.9143,0.0080,0.9091
1797,0.0361,0.0210,0.9082,0.0036,0.9091
1817,0.0249,0.0374,0.9087,0.0037,0.9093
1837,0.0215,0.0400,0.9014,0.0044,0.9072
1857,0.0264,0.0356,0.9131,0.0022,0.9093
1877,0.0310,0.0293,0.9124,0.0022,0.9105
1897,0.0334,0.0291,0.9128,0.0021,0.9115
1917,0.0330,0.0300,0.9102,0.0010,0.9114
1937,0.0305,0.0356,0.9087,0.0014,0.9110
1957,0.0286,0.0347,0.9053,0.0017,0.9096
1977,0.0244,0.0369,0.9067,0.0021,0.9091
1997,0.0320,0.0310,0.9111,0.0017,0.9100
2017,0.0244,0.0208,0.9089,0.0041,0.9098
2037,-0.0273,0.0093,0.9119,0.0177,0.9102
2057,0.0083,0.0500,0.8992,0.0086,0.9072
2077,0.0427,0.0508,0.8962,0.0117,0.9045
2097,0.1472,-0.0264,0.9063,0.0426,0.9064
2117,0.0486,0.0168,0.9136,0.0040,0.9090
2137,-0.0054,0.0796,0.8972,0.0262,0.9056
2157,-0.0210,0.0923,0.8914,0.0245,0.9021
2177,0.0227,0.0457,0.8997,0.0024,0.9018
2197,0.0464,0.0251,0.9045,0.0110,0.9029
2217,0.0574,0.0107,0.9106,0.0133,0.9056
2237,0.0413,0.0178,0.9158,0.0060,0.9089
2257,0.0281,0.0330,0.9128,0.0037,0.9104
2277,0.0210,0.0444,0.9109,0.0061,0.9109
2297,0.0244,0.0398,0.9099,0.0026,0.9110
2317,0.0305,0.0327,0.9075,0.0013,0.9102
2337,0.1345,0.1121,0.7876,0.0534,0.8767
2357,0.0713,0.0144,0.8833,0.0138,0.8793
2377,-0.0640,0.1218,0.9023,0.0455,0.8868
2397,-0.0159,0.0852,0.9063,0.0151,0.8936
2417,0.0129,0.0544,0.9055,0.0072,0.8977
2437,0.0735,0.0029,0.9065,0.0268,0.9003
2457,0.0625,0.0042,0.9097,0.0165,0.9034
2477,0.0391,0.0308,0.8906,0.0036,0.9000
2497,0.0183,0.0493,0.9063,0.0084,0.9022
2517,0.0237,0.0496,0.9001,0.0045,0.9021
2537,0.0273,0.0552,0.9016,0.0042,0.9026
2557,0.0344,0.0217,0.9087,0.0077,0.9046
2577,0.0161,0.0479,0.9033,0.0053,0.9046
2597,0.0183,0.0449,0.9016,0.0027,0.9041
2617,0.0220,0.0308,0.9102,0.0042,0.9061
2637,0.0342,0.0298,0.9019,0.0043,0.9052
2657,0.0386,0.0244,0.9119,0.0055,0.9075
2677,0.0273,0.0312,0.9080,0.0011,0.9079
2697,0.0383,-0.0085,0.9011,0.0126,0.9059
2717,0.0510,0.0291,0.9204,0.0078,0.9108
2737,0.0635,0.0312,0.9160,0.0083,0.9131
2757,0.0312,0.0571,0.9292,0.0117,0.9185
2777,0.0332,0.0786,0.9023,0.0140,0.9146
2797,0.0337,0.0576,0.9004,0.0049,0.9111
2817,0.0310,0.0361,0.9004,0.0054,0.9082
2837,0.0317,0.0154,0.9119,0.0095,0.9094
2857,0.0271,0.0354,0.9114,0.0024,0.9103
2877,0.0254,0.0190,0.9158,0.0060,0.9121
2897,0.0283,0.0242,0.9058,0.0027,0.9104
2917,0.0674,0.1260,0.9966,0.0407,0.9383
2937,0.1304,0.0088,0.9121,0.0315,0.9320
2957,0.0664,-0.0117,0.9199,0.0167,0.9288
2977,0.0315,-0.0398,0.9233,0.0227,0.9269
2997,-0.0417,0.0615,0.9004,0.0346,0.9184
3017,-0.0435,0.1104,0.9038,0.0339,0.9149
3037,-0.0156,0.0793,0.9004,0.0118,0.9115
3057,0.0515,0.0259,0.9082,0.0184,0.9106
3077,0.0659,-0.0105,0.9116,0.0234,0.9109
3097,0.0383,0.0378,0.9099,0.0032,0.9111
3117,0.0427,0.0105,0.9099,0.0074,0.9110
3137,0.0054,0.0747,0.9026,0.0173,0.9090
3157,0.0188,0.0229,0.9063,0.0059,0.9083
3177,0.1260,-0.0593,0.9189,0.0418,0.9125
3197,-0.0896,0.1580,0.8967,0.0628,0.9081
3217,-0.1306,0.2061,0.8914,0.0630,0.9079
3237,0.1926,-0.2810,0.9338,0.1325,0.9124
3257,0.8008,-0.6614,0.9653,0.3008,0.9873
3277,0.6514,-0.7139,0.9814,0.1913,1.0799
3297,0.2803,-0.4666,0.9734,0.0448,1.0885
3317,0.0540,0.5439,0.8845,0.2954,0.9747
3337,-0.1233,0.8840,0.8650,0.3209,0.9425
3357,0.3079,0.2810,0.9004,0.0562,0.9538
3377,0.7739,-1.1733,0.9885,0.4520,1.0227
3397,1.4175,-1.5906,1.0466,0.5234,1.3355
3417,1.1055,-0.8076,1.0002,0.1392,1.4372
3437,-0.7097,0.8186,0.8171,0.6410,1.0196
3457,-1.3738,1.6294,0.7546,0.7626,0.9510
3477,0.3020,-0.5857,0.9365,0.3088,0.8966
3497,1.4553,-1.2893,1.0210,0.6010,1.0802
3517,-0.6462,0.9585,0.8311,0.5067,0.9086
3537,-0.8345,0.9595,0.8257,0.3931,0.9524
3557,1.3838,-1.5183,1.0396,0.7254,0.9986
3577,-0.2161,0.7136,0.8713,0.3222,0.9222
3597,-0.6870,0.8257,0.8289,0.3402,0.9368
3617,1.4946,-1.3232,1.0205,0.6825,1.0176
3637,-1.2178,1.3457,0.7942,0.6659,0.9314
3657,0.2522,-0.8403,0.9314,0.3487,0.9026
3677,0.6399,-0.0950,0.9666,0.1926,0.9431
3697,-0.8853,1.0820,0.8069,0.4758,0.9360
3717,1.4167,-1.1855,1.0149,0.6388,0.9969
3737,-1.5332,1.4370,0.7573,0.7398,0.9568
3757,0.5896,-1.4397,0.9795,0.5815,0.9305
3777,-0.2739,0.9248,0.8677,0.3521,0.9065
3797,0.1213,-0.6130,0.9165,0.2301,0.9060
3817,0.3792,0.4067,0.9333,0.1907,0.9186
3837,-0.1641,0.0835,0.8835,0.0816,0.9053
3857,0.6938,0.0591,0.9695,0.2018,0.9519
3877,-0.3401,0.4568,0.8618,0.2075,0.9241
3897,0.8052,-0.0850,0.9878,0.2399,0.9761
3917,-0.3730,0.5444,0.8584,0.2378,0.9416
3937,0.7981,-0.0354,0.9824,0.2300,0.9891
3957,-0.2947,0.4043,0.8682,0.1941,0.9477
3977,0.6819,0.1753,0.9644,0.1699,0.9945
3997,-0.1270,0.0461,0.8904,0.1349,0.9451
4017,0.4312,0.5525,0.9460,0.1420,0.9970
4037,0.0723,-0.5664,0.9170,0.2590,0.9430
4057,-0.0237,0.9622,0.8953,0.2884,0.9730
4077,0.3254,-1.2998,0.9514,0.4857,0.9604
4097,-0.7468,1.2268,0.8125,0.5065,0.9295
4117,0.7708,-1.7432,1.0076,0.6514,1.0046
4137,-1.4519,1.2380,0.7827,0.6817,0.9476
4157,1.2930,-1.5630,0.9744,0.7009,1.0007
4177,-1.4639,1.2573,0.7607,0.6944,0.9309
4197,1.3020,-0.9641,1.0039,0.5862,0.9458
4217,-0.8125,0.9512,0.8096,0.4565,0.8978
4237,0.7961,-0.1470,1.0259,0.2937,0.9356
4257,-0.1062,-0.0396,0.8936,0.0816,0.9168
4277,0.1311,0.9341,0.9111,0.2735,0.9643
4297,0.4204,-1.3901,0.9521,0.5160,0.9666
4317,-1.0603,1.3103,0.8181,0.5909,0.9447
4337,1.1255,-1.6946,1.0017,0.7036,1.0060
4357,-1.4541,1.2688,0.7722,0.6945,0.9377
4377,1.2825,-0.9456,0.9941,0.5755,0.9492
4397,-0.6267,0.8293,0.8252,0.3891,0.8977
4417,0.6992,0.2664,0.9841,0.2340,0.9459
4437,0.1360,-0.6355,0.9131,0.2403,0.9319
4457,0.2881,0.8176,0.9133,0.2707,0.9553
4477,0.3850,-1.3542,0.9414,0.4676,0.9946
4497,-1.1729,1.3491,0.7986,0.6487,0.9277
4517,1.2075,-1.5811,0.9834,0.6805,0.9998
4537,-1.3091,1.1914,0.7664,0.6516,0.9083
4557,1.0681,-0.4968,1.0076,0.4331,0.9278
4577,-0.1956,0.1831,0.8704,0.1302,0.9010
4597,0.1584,1.0325,0.9116,0.3069,0.9618
4617,0.5039,-1.5713,0.9692,0.5814,0.9786
4637,-1.3909,1.2781,0.7959,0.6648,0.9483
4657,1.2898,-1.3943,0.9824,0.6718,0.9739
4677,-0.9668,1.0442,0.7788,0.5287,0.8950
4697,0.8672,0.1038,1.0313,0.3092,0.9410
4717,0.1016,-0.5447,0.9387,0.1994,0.9400
4737,-0.5364,1.3140,0.8191,0.4660,0.9577
4757,0.9136,-1.8237,1.0166,0.7125,1.0078
4777,-1.5454,1.1516,0.7605,0.6918,0.9392
4797,1.1914,-0.6001,0.9939,0.4999,0.9299
4817,-0.1687,0.3521,0.8867,0.1630,0.9082
4837,0.1516,1.1062,0.9063,0.3206,0.9787
4857,0.5276,-1.7432,0.9902,0.6459,0.9931
4877,-1.6116,1.1467,0.7700,0.6952,0.9562
4897,1.2996,-1.0415,0.9917,0.6081,0.9510
4917,-0.4578,0.7722,0.8604,0.3464,0.9038
4937,0.4810,0.8689,0.9482,0.2797,0.9772
4957,0.3750,-1.5334,0.9661,0.5622,0.9791
4977,-1.4941,1.1616,0.7729,0.6602,0.9528
4997,1.2876,-1.2097,0.9854,0.6365,0.9581
5017,-0.5735,0.8662,0.8489,0.3988,0.9007
5037,0.5588,0.7817,0.9485,0.2761,0.9680
5057,0.3477,-1.4575,0.9600,0.5320,0.9723
5077,-1.4680,1.1545,0.7827,0.6500,0.9519
5097,1.2817,-1.2417,0.9917,0.6413,0.9619
5117,-0.5466,0.8567,0.8533,0.3940,0.9021
5137,0.5322,0.8489,0.9490,0.2865,0.9743
5157,0.3833,-1.5532,0.9695,0.5664,0.9828
5177,-0.8079,1.3191,0.8052,0.5602,0.9253
5197,1.1284,-1.6704,0.9788,0.6778,1.0168
5217,-1.0701,1.0159,0.7900,0.5739,0.8919
5237,0.8037,0.3225,0.9956,0.2934,0.9372
5257,0.2739,-1.0408,0.9570,0.3569,0.9695
5277,-1.1479,1.3796,0.8000,0.6245,0.9520
5297,1.2212,-1.3782,0.9692,0.6549,0.9658
5317,-0.6992,0.8064,0.7925,0.4161,0.8827
5337,0.4290,0.8232,0.9382,0.2667,0.9498
5357,0.5066,-1.5720,0.9739,0.5773,0.9781
5377,-1.5535,1.2185,0.7939,0.6919,0.9546
5397,1.1807,-0.8293,0.9714,0.5432,0.9258
5417,-0.0989,0.2334,0.8875,0.1268,0.9044
5437,-0.1853,1.3167,0.8691,0.4061,0.9720
5457,0.8530,-1.8450,1.0125,0.7185,1.0018
5477,-1.3699,1.0996,0.7810,0.6401,0.9248
5497,0.8816,-0.0078,1.0159,0.3406,0.9332
5517,0.2810,-0.7917,0.9431,0.2701,0.9581
5537,-1.1135,1.3606,0.8115,0.5982,0.9657
5557,1.2112,-1.3850,0.9639,0.6617,0.9620
5577,-0.5361,0.7222,0.8345,0.3593,0.8935
5597,0.2908,1.0400,0.9194,0.3067,0.9710
5617,0.6257,-1.7761,0.9836,0.6617,0.9962
5637,-1.5505,1.1440,0.7812,0.6881,0.9417
5657,1.0237,-0.3276,0.9822,0.4220,0.9172
5677,0.2190,-0.4656,0.9224,0.1453,0.9350
5697,-0.8811,1.4111,0.7964,0.5567,0.9536
5717,1.1641,-1.5112,0.9570,0.6818,0.9582
5737,-0.6213,0.7627,0.8074,0.3921,0.8774
5757,0.3408,1.0369,0.9214,0.3099,0.9627
5777,0.6294,-1.7795,0.9802,0.6633,0.9896
5797,-1.5491,1.1121,0.7827,0.6833,0.9331
5817,0.9775,-0.2163,1.0024,0.3969,0.9188
5837,0.2893,-0.6653,0.9385,0.2174,0.9501
5857,-1.1128,1.3789,0.8005,0.6024,0.9589
5877,1.1797,-1.3076,0.9612,0.6393,0.9475
5897,-0.2886,0.5181,0.8616,0.2573,0.8956
5917,0.6057,0.6895,0.9744,0.2618,0.9691
5937,0.5234,-1.6116,0.9751,0.5582,1.0378
5957,-1.6086,1.1155,0.7803,0.7213,0.9339
5977,1.0229,-0.3467,0.9700,0.4107,0.9215
5997,0.3013,-0.5793,0.9407,0.1736,0.9578
6017,-1.0940,1.3882,0.7905,0.6099,0.9481
6037,1.1592,-1.2681,0.9661,0.6197,0.9480
6057,-0.1914,0.4116,0.8772,0.2147,0.9023
6077,-0.1702,1.4553,0.8743,0.4450,0.9906
6097,0.9407,-1.8264,0.9956,0.7338,0.9970
6117,-0.9885,0.8740,0.7979,0.5107,0.8947
6137,0.4924,0.9282,0.9507,0.3075,0.9706
6157,0.6165,-1.7737,0.9873,0.6551,1.0041
6177,-1.5588,1.0344,0.7742,0.6727,0.9379
6197,0.8601,0.0959,1.0088,0.3496,0.9277
6217,0.4414,-1.1428,0.9651,0.3919,0.9867
6237,-1.5190,1.2019,0.8071,0.6727,0.9730
6257,1.0762,-0.6741,0.9607,0.4948,0.9231
6277,0.2561,-0.3286,0.9224,0.0898,0.9407
6297,-0.9590,1.4441,0.7930,0.5831,0.9572
6317,1.1335,-1.3198,0.9597,0.6339,0.9424
6337,-0.1226,0.3416,0.8789,0.1823,0.9030
6357,-0.3179,1.5378,0.8501,0.4835,0.9909
6377,0.9949,-1.7490,0.9700,0.7271,0.9750
6397,-0.6572,0.7087,0.8154,0.3956,0.8832
6417,0.2036,1.3428,0.9006,0.3879,0.9959
6437,0.7993,-1.9111,1.0110,0.7427,1.0006
6457,-1.1917,0.8687,0.7876,0.5585,0.9008
6477,0.5762,0.9309,0.9675,0.3385,0.9701
6497,0.6191,-1.8000,0.9900,0.6624,1.0080
6517,-1.3186,0.9849,0.7812,0.6062,0.9217
6537,0.2556,0.2920,0.9270,0.1607,0.9151
6557,0.8203,-1.5605,1.0178,0.5807,1.0211
6577,-1.2302,1.2495,0.8105,0.6455,0.9365
6597,0.4775,0.1707,0.9153,0.2159,0.9131
6617,0.6924,-1.4221,1.0020,0.5148,1.0084
6637,-1.2700,1.4475,0.8027,0.6919,0.9489
6657,0.6819,-0.3262,0.9331,0.3208,0.9070
6677,0.0950,-0.2256,0.9126,0.0828,0.9098
6697,-0.8123,1.7788,0.8110,0.6039,1.0358
6717,0.9856,-1.5439,0.9863,0.7128,0.9295
6737,-0.2737,0.2185,0.8523,0.1614,0.8937
6757,-0.4373,1.5571,0.8474,0.4902,0.9993
6777,1.0146,-1.7771,1.0044,0.7528,0.9672
6797,-0.7625,0.6384,0.8372,0.3912,0.8970
6817,-0.0540,0.9990,0.8792,0.2867,0.9506
6837,0.9846,-1.7354,1.0232,0.6965,1.0045
6857,-1.1377,1.0234,0.8225,0.5737,0.9186
6877,0.2937,0.3542,0.9197,0.1574,0.9220
6897,0.7830,-1.5134,1.0054,0.5641,1.0134
6917,-1.2598,1.3997,0.8184,0.6824,0.9472
6937,0.6775,-0.3184,0.9482,0.3118,0.9160
6957,0.5466,-1.0168,0.9604,0.3507,0.9884
6977,-1.1624,1.7036,0.7903,0.7219,0.9650
6997,0.8728,-0.9189,0.9456,0.4935,0.9131
7017,0.2820,-0.4670,0.9358,0.1340,0.9453
7037,-0.9514,1.7974,0.7908,0.6816,0.9848
7057,1.0022,-1.4778,0.9810,0.6686,0.9386
7077,-0.1970,0.1631,0.8635,0.1485,0.8992
7097,-0.4844,1.5439,0.8521,0.5086,0.9827
7117,1.0613,-1.7771,1.0122,0.7469,0.9834
7137,-0.9709,0.8486,0.8167,0.4912,0.9016
7157,0.4424,0.8672,0.9346,0.2879,0.9602
7177,0.6177,-1.7637,0.9873,0.6489,1.0015
7197,-1.5505,1.0220,0.7720,0.6655,0.9392
7217,0.8477,0.2529,1.0112,0.3528,0.9320
7237,0.5029,-1.3242,0.9651,0.4616,0.9961
7257,-1.6299,1.1255,0.7856,0.6915,0.9700
7277,1.0278,-0.3088,0.9751,0.4388,0.9166
7297,0.4133,-0.7947,0.9519,0.2614,0.9702
7317,-1.4031,1.2944,0.8015,0.6584,0.9661
7337,1.0969,-0.7998,0.9541,0.5213,0.9194
7357,0.2993,-0.3127,0.9268,0.0882,0.9420
7377,-1.0918,1.4055,0.7908,0.6027,0.9547
7397,1.1079,-1.1470,0.9673,0.5907,0.9313
7417,-0.6230,0.6897,0.8220,0.3452,0.8894
7437,0.1069,1.4343,0.9055,0.3975,1.0255
7457,0.8445,-1.9282,0.9976,0.7768,0.9779
7477,-0.8801,0.7874,0.7961,0.4550,0.8916
7497,0.2964,1.3030,0.9077,0.3840,0.9977
7517,0.7856,-1.9353,1.0134,0.7517,0.9976
7537,-1.0869,0.8047,0.7947,0.5163,0.9016
7557,0.4175,1.1875,0.9280,0.3800,0.9827
7577,0.7275,-1.9380,1.0200,0.7321,1.0115
7597,-1.2122,0.8535,0.7898,0.5574,0.9152
7617,0.5120,1.1030,0.9456,0.3836,0.9772
7637,0.6951,-1.9133,1.0227,0.7130,1.0193
7657,-1.3062,0.8604,0.7856,0.5805,0.9274
7677,0.5476,1.0168,0.9456,0.3783,0.9678
7697,0.6790,-1.8960,1.0095,0.6986,1.0195
7717,-1.3735,0.8665,0.7771,0.5970,0.9318
7737,0.6042,0.9619,0.9634,0.3858,0.9623
7757,0.6577,-1.8826,1.0022,0.6864,1.0214
7777,-1.4097,0.8801,0.7778,0.6080,0.9370
7797,0.6279,0.9121,0.9719,0.3850,0.9591
7817,0.6658,-1.8489,0.9956,0.6726,1.0219
7837,-1.4436,0.9033,0.7744,0.6205,0.9394
7857,0.6597,0.8423,0.9766,0.3795,0.9546
7877,0.6499,-1.8186,1.0010,0.6574,1.0241
7897,-1.4927,0.9021,0.7717,0.6318,0.9456
7917,0.6753,0.7764,0.9832,0.3753,0.9512
7937,0.6489,-1.7996,0.9971,0.6464,1.0269
7957,-1.5295,0.8762,0.7598,0.6367,0.9474
7977,0.6870,0.7896,0.9841,0.3867,0.9479
7997,0.6536,-1.7979,0.9924,0.6452,1.0251
8017,-1.5122,0.8875,0.7629,0.6342,0.9455
8037,0.6863,0.7949,0.9854,0.3868,0.9481
8057,0.6418,-1.8066,0.9993,0.6471,1.0268
8077,-1.5081,0.8865,0.7664,0.6327,0.9478
8097,0.6653,0.8127,0.9783,0.3853,0.9490
8117,0.6509,-1.8364,0.9985,0.6584,1.0281
8137,-1.6316,1.1228,0.7988,0.7054,0.9732
8157,0.9712,-0.1711,0.9556,0.4088,0.9158
8177,0.5762,-1.1055,0.9756,0.3697,1.0099
8197,-1.6567,1.0850,0.7954,0.7011,0.9662
8217,0.9412,-0.0435,0.9802,0.3932,0.9204
8237,0.5806,-1.2378,0.9724,0.4210,1.0119
8257,-1.6833,1.0427,0.7886,0.7003,0.9670
8277,0.8923,0.1074,1.0005,0.3796,0.9279
8297,0.6152,-1.3606,0.9763,0.4710,1.0198
8317,-1.6914,0.9946,0.7810,0.6953,0.9685
8337,0.8430,0.3096,1.0000,0.3742,0.9337
8357,0.6213,-1.5474,0.9775,0.5382,1.0272
8377,-1.6584,0.9314,0.7673,0.6782,0.9630
8397,0.7690,0.5784,0.9968,0.3824,0.9401
8417,0.6536,-1.7346,0.9919,0.6121,1.0347
8437,-1.5449,0.8823,0.7673,0.6441,0.9527
8457,0.6462,0.8931,0.9771,0.4017,0.9538
8477,0.7029,-1.8826,1.0088,0.6820,1.0336
8497,-1.3669,0.7979,0.7708,0.5857,0.9365
8517,0.4924,1.2175,0.9407,0.4405,0.9717
8537,0.7593,-1.9785,1.0225,0.7394,1.0229
8557,-1.0542,0.7041,0.7949,0.4919,0.9163
8577,0.2527,1.4954,0.9060,0.4772,0.9963
8597,0.8342,-1.9517,1.0066,0.7614,0.9988
8617,-0.6619,0.5786,0.8149,0.3714,0.8986
8637,-0.0564,1.7026,0.8777,0.5193,1.0187
8657,0.9170,-1.8193,0.9629,0.7518,0.9649
8677,-0.2515,0.3977,0.8579,0.2331,0.9012
8697,-0.4304,1.7363,0.8389,0.5506,1.0160
8717,0.9736,-1.5403,0.9507,0.6885,0.9400
8737,0.1445,0.0894,0.9104,0.0668,0.9303
8757,-0.8794,1.6235,0.7864,0.6009,0.9857
8777,0.9868,-1.1011,0.9595,0.5717,0.9218
8797,0.4585,-0.3899,0.9536,0.1353,0.9662
8817,-1.3640,1.3523,0.7930,0.6665,0.9552
8837,0.9634,-0.5007,0.9446,0.4287,0.9117
8857,0.6448,-0.9663,0.9751,0.3465,0.9959
8877,-0.9863,1.5908,0.7771,0.6716,0.9349
8897,0.9646,-0.9470,0.9448,0.4925,0.9284
8917,0.5767,-0.5681,0.9563,0.1841,0.9976
8937,-1.5281,1.2395,0.7939,0.7097,0.9337
8957,0.8992,-0.2014,0.9482,0.3611,0.9114
8977,0.7031,-1.2749,0.9910,0.4480,1.0215
8997,-1.7363,0.9080,0.7642,0.7118,0.9356
9017,0.7124,0.6692,0.9941,0.3624,0.9430
9037,0.7490,-1.8472,1.0110,0.6657,1.0426
9057,-1.3860,0.6895,0.7886,0.5817,0.9363
9077,0.3528,1.4902,0.9138,0.5020,0.9899
9097,0.8318,-1.9668,1.0120,0.7618,1.0035
9117,-0.5737,0.4641,0.8318,0.3285,0.9078
9137,-0.2441,1.8469,0.8647,0.5807,1.0274
9157,0.9229,-1.6191,0.9407,0.7059,0.9401
9177,0.2046,0.0142,0.9314,0.0456,0.9416
9197,-0.9995,1.6082,0.7783,0.6264,0.9809
9217,0.9429,-0.8628,0.9443,0.5067,0.9121
9237,0.6245,-0.7563,0.9695,0.2739,0.9889
9257,-1.6326,1.1450,0.7991,0.7101,0.9448
9277,0.8179,0.1150,0.9792,0.3296,0.9293
9297,0.7495,-1.5596,0.9924,0.5613,1.0310
9317,-1.6519,0.7600,0.7515,0.6655,0.9339
9337,0.5427,1.1841,0.9561,0.4419,0.9685
9357,0.8091,-1.9905,1.0325,0.7483,1.0270
9377,-0.8628,0.4978,0.8003,0.4119,0.9122
9397,-0.0762,1.8462,0.8823,0.5838,1.0223
9417,0.9131,-1.7031,0.9541,0.7240,0.9498
9437,0.1467,0.0217,0.9197,0.0604,0.9398
9457,-0.9792,1.6528,0.7844,0.6359,0.9832
9477,0.8914,-0.8030,0.9343,0.4842,0.9074
9497,0.7280,-0.8970,0.9756,0.3335,1.0014
9517,-1.7185,1.0164,0.7852,0.7198,0.9348
9537,0.7251,0.5059,0.9893,0.3247,0.9454
9557,0.8228,-1.8069,1.0115,0.6637,1.0427
9577,-1.3594,0.5979,0.7864,0.5668,0.9265
9597,0.2178,1.7012,0.9043,0.5500,1.0114
9617,0.8643,-1.9004,0.9880,0.7637,0.9776
9637,-1.2141,0.5432,0.7883,0.4866,0.9131
9657,0.1023,1.8091,0.8911,0.5554,1.0425
9677,0.8843,-1.8269,0.9565,0.7711,0.9402
9697,0.0798,0.0532,0.9155,0.0740,0.9275
9717,-0.9565,1.7070,0.7759,0.6379,0.9909
9737,0.8330,-0.7471,0.9338,0.4690,0.9008
9757,0.7913,-1.0295,0.9905,0.3907,1.0059
9777,-1.7661,0.8923,0.7698,0.7156,0.9305
9797,0.6357,0.8557,0.9783,0.3648,0.9611
9817,0.8528,-1.9485,1.0305,0.7307,1.0376
9837,-0.9832,0.4619,0.7883,0.4445,0.9126
9857,-0.1030,1.9614,0.8772,0.6225,1.0330
9877,0.8818,-1.6196,0.9436,0.7060,0.9335
9897,0.4202,-0.2620,0.9556,0.0834,0.9702
9917,-1.3540,1.4448,0.7856,0.6844,0.9630
9937,0.7742,-0.1411,0.9351,0.3311,0.9173
9957,0.8916,-1.5361,1.0168,0.5712,1.0413
9977,-1.6226,0.6213,0.7681,0.6510,0.9235
9997,0.3384,1.6265,0.9158,0.5342,1.0053
10017,0.8723,-1.9377,1.0010,0.7733,0.9836
10037,-0.0845,0.0784,0.8909,0.1345,0.9365
10057,-0.8730,1.8015,0.7776,0.6607,0.9894
10077,0.7949,-0.7268,0.9358,0.4537,0.9032
10097,0.8845,-1.1707,0.9980,0.4424,1.0291
10117,-1.7866,0.7419,0.7463,0.7128,0.9196
10137,0.4707,1.2927,0.9419,0.4470,0.9796
10157,0.8936,-1.9905,1.0278,0.7736,1.0102
10177,-0.4104,0.1868,0.8472,0.2441,0.9228
10197,-0.6377,1.9639,0.8025,0.6707,1.0094
10217,0.7939,-0.9736,0.9404,0.5216,0.9040
10237,0.8582,-0.9995,0.9944,0.3833,1.0230
10257,-1.7817,0.8381,0.7590,0.7206,0.9257
10277,0.5090,1.1567,0.9558,0.4086,0.9815
10297,0.9192,-1.9878,1.0383,0.7718,1.0232
10317,-0.4734,0.1741,0.8386,0.2623,0.9272
10337,-0.6348,1.9999,0.8003,0.6824,1.0139
10357,0.8892,-1.7915,0.9634,0.7522,0.9370
10377,0.3220,-0.2473,0.9453,0.0561,0.9617
10397,-1.3237,1.5085,0.7844,0.6912,0.9620
10417,0.6799,-0.0042,0.9426,0.2966,0.9207
10437,0.9905,-1.6863,1.0229,0.6396,1.0488
10457,-1.3821,0.4463,0.7781,0.5651,0.9162
10477,0.0237,1.9999,0.8892,0.6386,1.0360
10497,0.8679,-1.6489,0.9541,0.7158,0.9329
10517,0.5239,-0.4553,0.9612,0.1447,0.9910
10537,-1.5088,1.3286,0.7993,0.7117,0.9539
10557,0.6035,0.4072,0.9673,0.2649,0.9554
10577,1.0117,-1.8640,1.0305,0.7146,1.0562
10597,-1.0024,0.2593,0.8008,0.4353,0.9234
10617,-0.2952,1.9999,0.8462,0.6548,1.0185
10637,0.7659,-1.2534,0.9429,0.5883,0.9124
10657,0.8914,-0.9304,0.9888,0.3534,1.0405
10677,-1.7944,0.8254,0.7488,0.7308,0.9222
10697,0.4006,1.3643,0.9250,0.4503,0.9926
10717,0.9724,-1.9399,1.0190,0.7798,0.9975
10737,-0.0278,-0.1340,0.9089,0.0900,0.9649
10757,-1.1128,1.7798,0.7791,0.7157,0.9800
10777,0.5977,-0.0845,0.9250,0.2822,0.9233
10797,1.0779,-1.7520,1.0366,0.6759,1.0596
10817,-1.2004,0.2725,0.7827,0.5016,0.9150
10837,-0.2605,1.9999,0.8599,0.6530,1.0165
10857,0.7292,-1.2119,0.9492,0.5743,0.9079
10877,1.0037,-1.0813,1.0073,0.4168,1.0625
10897,-1.7737,0.6675,0.7524,0.7142,0.9206
10917,0.2378,1.8215,0.8989,0.5791,1.0323
10937,0.9224,-1.8167,0.9841,0.7674,0.9527
10957,0.4722,-0.5085,0.9648,0.1295,1.0099
10977,-1.5576,1.3022,0.7812,0.7283,0.9466
10997,0.4402,0.8425,0.9575,0.2899,0.9886
11017,1.0847,-1.9490,1.0432,0.7819,1.0376
11037,-0.2781,-0.1626,0.8735,0.1759,0.9703
11057,-1.0295,1.9236,0.7693,0.7431,0.9879
11077,0.7117,-1.2913,0.9575,0.5783,0.9111
11097,1.0459,-1.1311,1.0249,0.4277,1.0869
11117,-1.7695,0.6035,0.7488,0.7087,0.9337
11137,0.1453,1.9800,0.9006,0.6409,1.0380
11157,0.8750,-1.7161,0.9761,0.7378,0.9397
11177,0.7148,-0.7703,0.9773,0.2508,1.0436
11197,-1.7349,1.0063,0.7542,0.7392,0.9299
11217,0.3269,1.4119,0.9231,0.4454,1.0140
11237,1.0225,-1.8994,1.0120,0.7881,0.9867
11257,0.2888,-0.4897,0.9473,0.0766,1.0168
11277,-1.4932,1.4260,0.7783,0.7404,0.9514
11297,0.3879,0.8359,0.9485,0.2747,0.9911
11317,1.1340,-1.9409,1.0466,0.7904,1.0366
11337,-0.1162,-0.3037,0.8928,0.1222,0.9941
11357,-1.2200,1.7866,0.7825,0.7541,0.9760
11377,0.4131,0.4211,0.9434,0.2017,0.9712
11397,1.2192,-1.9160,1.0569,0.7812,1.0577
11417,-0.3621,-0.2715,0.8667,0.2099,0.9834
11437,-1.0925,1.9502,0.7759,0.7715,0.9838
11457,0.3994,0.2620,0.9343,0.1957,0.9584
11477,1.2546,-1.8960,1.0549,0.7769,1.0579
11497,-0.4326,-0.2676,0.8489,0.2349,0.9739
11517,-1.0737,1.9973,0.7844,0.7799,0.9858
11537,0.3672,0.2727,0.9341,0.1874,0.9607
11557,1.2764,-1.8906,1.0605,0.7839,1.0539
11577,-0.3455,-0.3323,0.8660,0.2069,0.9857
11597,-1.1558,1.9346,0.7788,0.7821,0.9790
11617,0.3242,0.4570,0.9285,0.1766,0.9751
11637,1.2703,-1.8975,1.0479,0.7965,1.0387
11657,-0.1414,-0.4539,0.9072,0.1476,1.0095
11677,-1.3501,1.7302,0.7751,0.7763,0.9657
11697,0.2761,0.8538,0.9373,0.2401,1.0116
11717,1.2114,-1.9136,1.0432,0.8134,1.0188
11737,0.2344,-0.6497,0.9453,0.1181,1.0513
11757,-1.6194,1.3665,0.7490,0.7735,0.9448
11777,0.1724,1.4795,0.9084,0.4240,1.0576
11797,1.0974,-1.8030,1.0117,0.7996,0.9669
11817,0.7639,-1.0027,0.9746,0.3016,1.0972
11837,-1.2209,1.9661,0.7646,0.8622,0.9437
11857,0.2478,0.7368,0.9365,0.1674,1.0012
11877,1.2771,-1.9219,1.0479,0.8038,1.0587
11897,0.2974,-0.7407,0.9565,0.1426,1.0967
11917,-1.6572,1.3020,0.7332,0.7972,0.9234
11937,0.1003,1.7217,0.8889,0.4972,1.0721
11957,1.0232,-1.7332,0.9988,0.7796,0.9493
11977,0.9897,-1.2466,1.0044,0.4149,1.1366
11997,-1.7524,0.6077,0.7349,0.7337,0.9178
12017,-0.2397,1.9999,0.8535,0.6399,1.0343
12037,0.6230,-1.0200,0.9558,0.5243,0.9000
12057,1.4541,-1.8486,1.0823,0.7137,1.1787
12077,-1.0269,-0.0947,0.7732,0.4665,0.9814
12097,-0.9380,1.9999,0.7571,0.7735,0.9560
12117,0.2715,0.2559,0.9324,0.1661,0.9370
12137,1.4819,-2.0000,1.0647,0.8420,1.0767
12157,0.0693,-0.7698,0.9177,0.1457,1.0926
12177,-1.6294,1.5818,0.7510,0.8492,0.9323
12197,0.0203,1.6746,0.8833,0.4748,1.0760
12217,1.1033,-1.7488,1.0164,0.8039,0.9461
12237,1.0286,-1.3738,1.0090,0.4550,1.1544
12257,-1.7136,0.6177,0.7341,0.7301,0.9199
12277,-0.3284,1.9999,0.8557,0.6486,1.0309
12297,0.6003,-1.0137,0.9490,0.5173,0.8978
12317,1.4888,-1.8276,1.0793,0.7162,1.1765
12337,-1.0708,-0.1125,0.7769,0.4766,0.9837
12357,-0.9016,1.9999,0.7466,0.7698,0.9517
12377,0.2795,0.1287,0.9390,0.1773,0.9239
12397,1.5049,-1.9939,1.0852,0.8344,1.0947
12417,-0.0535,-0.6853,0.9082,0.1529,1.0833
12437,-1.5481,1.7402,0.7551,0.8618,0.9418
12457,0.0510,1.5029,0.8828,0.4113,1.0669
12477,1.1528,-1.8047,1.0229,0.8203,0.9574
12497,0.9719,-1.3467,1.0056,0.4283,1.1595
12517,-1.5120,1.8386,0.7505,0.9165,0.9221
12537,0.0435,1.4685,0.8909,0.3846,1.0657
12557,1.1797,-1.8064,1.0256,0.8119,0.9843
12577,0.9741,-1.3489,0.9995,0.4181,1.1834
12597,-1.7283,0.6558,0.7290,0.7550,0.9136
12617,-0.3621,1.9999,0.8521,0.6485,1.0296
12637,0.5664,-0.9121,0.9399,0.4846,0.8972
12657,1.5522,-1.9016,1.0947,0.7537,1.1855
12677,-0.8289,-0.2910,0.7871,0.3997,1.0141
12697,-1.1614,1.9999,0.7556,0.8259,0.9508
12717,0.1370,0.7673,0.9253,0.1947,0.9917
12737,1.4121,-1.9543,1.0400,0.8583,1.0189
12757,0.6118,-1.1443,0.9663,0.2732,1.1567
12777,-1.7822,1.0076,0.7136,0.8062,0.9112
12797,-0.2266,1.9999,0.8672,0.6235,1.0560
12817,0.7046,-1.1948,0.9695,0.5956,0.9011
12837,1.5027,-1.8591,1.0891,0.7175,1.1988
12857,-1.0632,-0.1790,0.7771,0.4781,1.0013
12877,-1.0400,1.9999,0.7495,0.7969,0.9555
12897,0.1479,0.5823,0.9233,0.1608,0.9710
12917,1.4675,-1.9731,1.0547,0.8617,1.0369
12937,0.5632,-1.1326,0.9648,0.2532,1.1672
12957,-1.7881,1.0144,0.7009,0.8120,0.9113
12977,-0.2542,1.9999,0.8623,0.6277,1.0509
12997,0.6484,-1.1025,0.9634,0.5623,0.8969
13017,1.6165,-1.9343,1.1016,0.7663,1.2098
13037,-0.7959,-0.4192,0.7881,0.3925,1.0460
13057,-1.3027,1.9999,0.7573,0.8650,0.9494
13077,0.0125,1.2576,0.9077,0.3203,1.0551
13097,1.2717,-1.8237,1.0339,0.8412,0.9653
13117,1.1465,-1.5903,1.0183,0.5095,1.2291
13137,-1.6047,0.3354,0.7483,0.6940,0.9530
13157,-0.7300,1.9999,0.7810,0.7180,0.9878
13177,0.2361,0.0154,0.9399,0.1983,0.9344
13197,1.6409,-2.0000,1.0676,0.8685,1.0958
13217,-0.8877,-0.3875,0.7700,0.3868,0.9750
13237,-1.3247,1.9999,0.7639,0.8252,0.9890
13257,-0.0574,1.3965,0.8904,0.3391,1.1136
13277,1.2197,-1.7529,1.0366,0.8510,0.9321
13297,1.3538,-1.7617,1.0557,0.6206,1.2348
13317,-1.4153,0.0022,0.7590,0.6092,0.9875
13337,-0.9929,1.9999,0.7505,0.7756,0.9715
13357,0.0371,0.8088,0.9141,0.1874,1.0129
13377,1.4409,-1.8979,1.0442,0.8689,0.9937
13397,1.1240,-1.6936,1.0261,0.5049,1.2852
13417,-1.5730,0.2310,0.7554,0.6897,0.9879
13437,-0.9104,1.9999,0.7603,0.7626,0.9736
13457,0.0723,0.6184,0.9253,0.1560,0.9899
13477,1.5068,-1.9409,1.0515,0.8757,1.0196
13497,1.0886,-1.6892,1.0154,0.4807,1.3074
13517,-1.5623,0.2566,0.7356,0.6967,0.9891
13537,-0.9309,1.9999,0.7595,0.7702,0.9662
13557,0.0288,0.7275,0.9263,0.1711,1.0008
13577,1.4783,-1.9019,1.0569,0.8696,1.0062
13597,1.2329,-1.8020,1.0281,0.5422,1.3304
13617,-1.4294,0.0566,0.7412,0.6467,1.0207
13637,-1.1187,1.9999,0.7490,0.8170,0.9568
13657,-0.0518,1.2239,0.9121,0.3055,1.0596
13677,1.2896,-1.7566,1.0461,0.8353,0.9544
13697,1.5435,-1.9661,1.0857,0.6806,1.3360
13717,-1.0217,-0.3911,0.7529,0.5001,1.0932
13737,-1.4780,1.9999,0.7498,0.9164,0.9492
13757,-0.2080,1.9999,0.8699,0.5482,1.1701
13777,0.8884,-1.3267,1.0139,0.7153,0.9154
13797,1.8042,-2.0000,1.1101,0.8263,1.2409
13817,-0.2893,-0.9524,0.8691,0.2905,1.1853
13837,-1.8376,1.5078,0.6809,0.9179,0.9228
13857,-0.4487,1.9999,0.8430,0.6022,1.1061
13877,0.3933,-0.4893,0.9602,0.3990,0.9380
13897,1.8445,-2.0000,1.0781,0.9064,1.1262
13917,0.6638,-1.5439,0.9736,0.3459,1.3193
13937,-1.7207,1.9258,0.7083,1.0494,0.8945
13957,-0.3486,1.9999,0.8672,0.5872,1.1035
13977,0.5605,-0.8369,0.9717,0.5000,0.9256
13997,1.8999,-2.0000,1.0837,0.8686,1.2143
14017,0.4045,-1.4229,0.9565,0.2927,1.3278
14037,-1.8271,0.8083,0.7009,0.8515,0.9421
14057,-0.8540,1.9999,0.7781,0.7152,1.0140
14077,0.0408,0.6572,0.9326,0.1498,1.0288
14097,1.5034,-1.8928,1.0542,0.8870,0.9956
14117,1.4951,-2.0000,1.0737,0.6459,1.3917
14137,-1.0249,-0.4487,0.7449,0.5128,1.1332
14157,-1.6169,1.9999,0.7251,0.9601,0.9434
14177,-0.3333,1.9999,0.8655,0.5607,1.1608
14197,0.6038,-0.8743,0.9805,0.5547,0.9231
14217,1.9414,-2.0000,1.0845,0.9027,1.1741
14237,0.5676,-1.5801,0.9556,0.3409,1.3466
14257,-1.7493,0.5127,0.7163,0.7925,0.9771
14277,-1.0559,1.9999,0.7515,0.7697,0.9949
14297,-0.1362,1.3704,0.9084,0.3261,1.1230
14317,1.1777,-1.6011,1.0498,0.8124,0.9267
14337,1.8545,-2.0000,1.1196,0.7890,1.3254
14357,-0.2383,-1.1106,0.8843,0.3025,1.2798
14377,-1.8984,1.2749,0.6843,0.9211,0.9360
14397,-0.7192,1.9999,0.7952,0.6591,1.0698
14417,0.0769,0.4912,0.9456,0.1549,1.0429
14437,1.5767,-1.8899,1.0559,0.9069,0.9970
14457,1.6311,-2.0000,1.0920,0.6716,1.4139
14477,-0.7241,-0.7405,0.7874,0.4264,1.2178
14497,-1.8618,1.7402,0.6816,0.9848,0.9289
14517,-0.5696,1.9999,0.8228,0.6041,1.1193
14537,0.2288,0.0061,0.9541,0.2684,0.9988
14557,1.7598,-2.0000,1.0610,0.9424,1.0453
14577,1.4653,-2.0000,1.0657,0.6076,1.4452
14597,-0.9453,-0.5754,0.7512,0.5014,1.1883
14617,-1.0601,1.9999,0.7505,0.9069,0.8805
14637,-0.1782,1.5188,0.8953,0.4317,1.0246
14657,1.0701,-1.4629,1.0457,0.7026,0.9468
14677,1.9999,-2.0000,1.0984,0.7917,1.3881
14697,0.2981,-1.5337,0.9380,0.2946,1.4637
14717,-1.8110,0.6187,0.7009,0.8631,1.0038
14737,-1.2029,1.9999,0.7559,0.8069,0.9958
14757,-0.2412,1.8496,0.8730,0.4751,1.2000
14777,0.9160,-1.2280,1.0264,0.7120,0.9195
14797,1.9999,-2.0000,1.0933,0.8829,1.2375
14817,0.6377,-1.7644,0.9700,0.3824,1.4384
14837,-1.6172,0.2373,0.7031,0.7518,1.0389
14857,-1.4819,1.9999,0.7515,0.8748,0.9990
14877,-0.3608,1.9999,0.8604,0.5346,1.2218
14897,0.5664,-0.6667,0.9978,0.5257,0.9636
14917,1.9839,-2.0000,1.0662,0.9475,1.1300
14937,1.2793,-2.0000,1.0281,0.5432,1.4877
14957,-1.0537,-0.5042,0.7329,0.5504,1.1887
14977,-1.8811,1.9453,0.6841,1.0233,0.9396
14997,-0.6858,1.9999,0.8198,0.5881,1.1635
15017,0.0923,0.4648,0.9607,0.1908,1.0986
15037,1.5549,-1.8557,1.0728,0.9270,0.9714
15057,1.8872,-2.0000,1.1201,0.7466,1.4159
15077,-0.0383,-1.3613,0.9067,0.3054,1.4102
15097,-1.9006,0.8354,0.6882,0.8928,0.9835
15117,-1.2200,1.9999,0.7539,0.7753,1.0448
15137,-0.2981,1.9999,0.8699,0.5041,1.2747
15157,0.7556,-0.9753,1.0063,0.6545,0.9479
15177,1.9999,-2.0000,1.0791,0.9321,1.1624
15197,1.1726,-2.0000,1.0166,0.5180,1.4974
15217,-1.0967,-0.4680,0.7346,0.5653,1.1884
15237,-1.9153,1.9290,0.6890,1.0234,0.9508
15257,-0.7407,1.9999,0.8098,0.5914,1.1739
15277,0.0266,0.7302,0.9543,0.1753,1.1517
15297,1.9999,-2.0000,1.0732,1.0709,0.9990
15317,1.1904,-2.0000,1.0232,0.6151,1.3247
15337,-1.0964,-0.5083,0.7307,0.5156,1.0984
15357,-1.9221,1.8901,0.6729,0.9715,0.9789
15377,-0.7673,1.9999,0.8054,0.5691,1.2191
15397,-0.0142,0.8555,0.9458,0.1843,1.2037
15417,1.3503,-1.6729,1.0708,0.8985,0.9279
15437,1.9999,-2.0000,1.0964,0.8294,1.3260
15457,0.5229,-1.7974,0.9524,0.3650,1.4977
15477,-1.5967,0.1494,0.7007,0.7502,1.0843
15497,-1.6909,1.9999,0.7322,0.9313,1.0088
15517,-0.5554,1.9999,0.8521,0.5507,1.2309
15537,0.2161,0.1831,0.9795,0.2802,1.0905
15557,1.6636,-1.9219,1.0671,0.9523,0.9981
15577,1.9851,-2.0000,1.1155,0.7484,1.4650
15597,0.2080,-1.6143,0.9307,0.3180,1.5234
15617,-1.7595,0.4106,0.6931,0.8327,1.0632
15637,-1.6045,1.9999,0.7400,0.8961,1.0266
15657,-0.5244,1.9999,0.8552,0.5406,1.2480
15677,0.2610,0.0762,0.9846,0.3149,1.0826
15697,1.6985,-1.9519,1.0674,0.9599,1.0103
15717,1.9951,-2.0000,1.1138,0.7421,1.4819
15737,0.2292,-1.6470,0.9229,0.3221,1.5428
15757,-1.7258,0.3704,0.6853,0.8256,1.0729
15777,-1.6604,1.9999,0.7395,0.9148,1.0218
15797,-0.5591,1.9999,0.8445,0.5460,1.2422
15817,0.2080,0.2847,0.9834,0.2671,1.1140
15837,1.5952,-1.8787,1.0688,0.9406,0.9845
15857,1.9999,-2.0000,1.1060,0.7657,1.4413
15877,0.4863,-1.8250,0.9514,0.3476,1.5855
15897,-1.5718,0.0393,0.7002,0.7562,1.1463
15917,-1.8215,1.9999,0.7017,0.9847,1.0003
15937,-0.7363,1.9999,0.8130,0.5735,1.2222
15957,-0.0078,0.8762,0.9561,0.1915,1.2102
15977,1.2844,-1.5850,1.0632,0.8649,0.9315
15997,1.6025,-2.0000,1.0659,0.7620,1.2505
16017,-0.4614,-1.1660,0.8401,0.3521,1.2202
16037,-1.9873,0.9998,0.6763,0.8541,0.9808
16057,-1.4006,1.9999,0.7559,0.7297,1.1794
16077,-0.4353,1.9999,0.8735,0.4754,1.3899
16097,0.3679,-0.1328,0.9885,0.4359,1.1172
16117,1.7622,-1.9817,1.0691,0.9982,1.0006
16137,1.9999,-2.0000,1.1079,0.7504,1.4680
16157,0.4558,-1.8459,0.9434,0.3530,1.6029
16177,-1.5427,-0.0200,0.6907,0.7470,1.1635
16197,-1.9417,1.9999,0.6829,1.0163,1.0041
16217,-0.8704,1.9999,0.7922,0.5846,1.2345
16237,-0.1543,1.4651,0.9297,0.2881,1.3354
16257,0.9751,-1.1604,1.0393,0.7624,0.9516
16277,1.9999,-2.0000,1.0632,0.9231,1.1767
16297,1.6277,-2.0000,1.0623,0.5773,1.5890
16317,-0.3276,-1.2991,0.8718,0.3843,1.4796
16337,-1.9421,0.7520,0.6755,0.9109,1.0172
16357,-1.6545,1.9999,0.7319,0.8603,1.0859
16377,-0.6084,1.9999,0.8408,0.5209,1.3097
16397,0.0713,0.7112,0.9705,0.2180,1.2352
16417,1.3174,-1.5964,1.0671,0.8818,0.9382
16437,1.9999,-2.0000,1.0740,0.8412,1.3080
16457,1.3340,-2.0000,1.0344,0.4759,1.6505
16477,-0.6689,-1.0386,0.8125,0.4644,1.4351
16497,-2.0000,1.0669,0.6672,0.9565,0.9909
16517,-1.5518,1.9999,0.7561,0.8064,1.1242
16537,-0.5559,1.9999,0.8445,0.5023,1.3426
16557,0.1108,0.6277,0.9707,0.2391,1.2381
16577,1.3420,-1.5854,1.0574,0.8842,0.9373
16597,1.9999,-2.0000,1.0742,0.8409,1.3082
16617,1.4888,-2.0000,1.0520,0.4978,1.6783
16637,-0.4265,-1.2590,0.8511,0.4143,1.5227
16657,-1.9602,0.7185,0.6782,0.9200,1.0457
16677,-1.7874,1.9999,0.7234,0.8937,1.1032
16697,-0.2339,1.9429,0.8984,0.5336,1.2565
16717,0.6948,-0.6760,1.0100,0.5694,0.9678
16737,1.9624,-2.0000,1.0549,0.9480,1.1171
16757,1.9999,-2.0000,1.0938,0.6720,1.6059
16777,0.7056,-2.0000,0.9697,0.3467,1.7765
16797,-1.1868,-0.5537,0.7185,0.6487,1.3772
16817,-2.0000,1.5088,0.6699,1.0146,0.9713
16837,-1.4285,1.9999,0.7703,0.7400,1.1716
16857,-0.5396,1.9999,0.8574,0.4770,1.3921
16877,0.1155,0.6731,0.9832,0.2499,1.2809
16897,1.2698,-1.4858,1.0466,0.8641,0.9387
16917,1.9999,-2.0000,1.0623,0.8630,1.2717
16937,1.8062,-2.0000,1.0823,0.5672,1.7063
16957,0.1436,-1.7615,0.9182,0.3538,1.7135
16977,-1.5859,-0.0732,0.6877,0.7803,1.2379
16997,-2.0000,1.9224,0.6707,1.0377,1.0019
17017,-1.2710,1.9999,0.7717,0.6431,1.2653
17037,-0.4629,1.9999,0.8804,0.4362,1.4742
17057,0.2100,0.4370,1.0024,0.3225,1.2847
17077,1.3708,-1.5767,1.0540,0.9024,0.9478
17097,1.9999,-2.0000,1.0647,0.8493,1.2983
17117,1.8376,-2.0000,1.0874,0.5637,1.7338
17137,0.2275,-1.8508,0.9246,0.3595,1.7614
17157,-1.4746,-0.2495,0.6819,0.7457,1.2980
17177,-2.0000,1.6685,0.6719,1.0078,0.9899
17197,-1.4558,1.9999,0.7700,0.7046,1.2414
17217,-0.5952,1.9999,0.8442,0.4569,1.4532
17237,0.0000,1.1448,0.9688,0.2345,1.4229
17257,1.0032,-1.0757,1.0364,0.7748,0.9938
17277,1.9999,-2.0000,1.0542,0.9456,1.1567
17297,1.9999,-2.0000,1.0928,0.6626,1.6342
17317,0.9954,-2.0000,0.9929,0.3499,1.8376
17337,-0.7361,-1.0840,0.7971,0.5225,1.5596
17357,-2.0000,0.7195,0.6714,0.9341,1.0757
17377,-2.0000,1.9999,0.6963,0.9363,1.1445
17397,-0.4133,1.9999,0.8879,0.5563,1.2972
17417,0.2258,0.4712,1.0020,0.2859,1.1706
17437,1.2981,-1.4792,1.0491,0.8201,0.9392
17457,1.9999,-2.0000,1.0479,0.8299,1.3190
17477,1.9999,-2.0000,1.0977,0.5817,1.7859
17497,0.7856,-2.0000,0.9709,0.3083,1.9180
17517,-0.9133,-0.9639,0.7651,0.5833,1.5767
17537,-2.0000,0.8384,0.6584,0.9529,1.0782
17557,-2.0000,1.9999,0.6958,0.9297,1.1584
17577,-1.1392,1.9999,0.7935,0.5530,1.4156
17597,-0.4128,1.9999,0.8882,0.4105,1.5803
17617,0.1680,0.6248,0.9888,0.3188,1.3892
17637,1.1836,-1.3040,1.0474,0.8463,0.9692
17657,1.9999,-2.0000,1.0537,0.9084,1.2105
17677,1.9999,-2.0000,1.0879,0.6364,1.6840
17697,1.2458,-2.0000,1.0151,0.3421,1.9201
17717,-0.3594,-1.4934,0.8684,0.4456,1.7469
17737,-1.7522,0.0930,0.6665,0.8397,1.2440
17757,-2.0000,1.8311,0.6631,1.0016,1.0393
17777,-1.5947,1.9999,0.7559,0.6828,1.3426
17797,-0.7810,1.9999,0.8298,0.4367,1.5512
17817,-0.1951,1.9999,0.9136,0.3693,1.6817
17837,0.5120,-0.1729,1.0125,0.5684,1.2732
17857,1.5476,-1.7615,1.0735,0.9654,0.9774
17877,1.9999,-2.0000,1.0513,0.8153,1.3598
17897,1.9999,-2.0000,1.1016,0.5715,1.8155
17917,0.9175,-2.0000,0.9810,0.3112,1.9551
17937,-0.6689,-1.2651,0.8203,0.5250,1.6879
17957,-1.9028,0.3433,0.6521,0.8872,1.1860
17977,-2.0000,1.9993,0.6738,1.0010,1.0873
17997,-1.5376,1.9999,0.7627,0.6351,1.4035
18017,-0.7844,1.9999,0.8271,0.4149,1.6022
18037,-0.2119,1.9999,0.9182,0.3586,1.7214
18057,0.4697,-0.0371,1.0112,0.5430,1.3266
18077,1.4678,-1.6470,1.0559,0.9451,0.9706
18097,1.9999,-2.0000,1.0447,0.8428,1.3150
18117,1.9999,-2.0000,1.0857,0.5906,1.7749
18137,-0.3677,-1.5371,0.8726,0.4804,1.6262
18157,-1.7046,-0.0898,0.6733,0.7819,1.1977
18177,-2.0000,1.5898,0.6636,0.9322,1.0329
18197,-1.8555,1.9999,0.7283,0.7280,1.3791
18217,-1.0330,1.9999,0.8188,0.4397,1.6129
18237,-0.4338,1.9999,0.8923,0.3537,1.7391
18257,0.0928,0.9126,0.9883,0.3038,1.5644
18277,0.9539,-0.9475,1.0254,0.7820,1.0695
18297,1.9280,-2.0000,1.0742,0.9759,1.1134
18317,1.9999,-2.0000,1.0657,0.6967,1.5735
18337,1.9999,-2.0000,1.0911,0.4881,1.9835
18357,0.8142,-2.0000,0.9724,0.2947,2.0577
18377,-0.6523,-1.3445,0.8271,0.5382,1.7785
18397,-1.8303,0.1140,0.6614,0.8590,1.2777
18417,-2.0000,1.6860,0.6685,0.9662,1.0730
18437,-1.8625,1.9999,0.7236,0.7335,1.3958
18457,-1.0559,1.9999,0.8157,0.4506,1.6199
18477,-0.4307,1.9999,0.8767,0.3664,1.7349
18497,0.0161,1.2109,0.9707,0.2679,1.6316
18517,0.7747,-0.6382,1.0229,0.7016,1.1536
18537,1.7312,-1.8882,1.0706,0.9633,1.0387
18557,1.9999,-2.0000,1.0454,0.7504,1.4728
18577,1.9999,-2.0000,1.0911,0.5259,1.9053
18597,1.4370,-2.0000,1.0315,0.2891,2.1177
18617,0.0840,-1.9700,0.9121,0.4058,2.0423
18637,-1.2209,-0.7878,0.7146,0.6850,1.6161
18657,-2.0000,0.6565,0.6514,0.9058,1.1706
18677,-2.0000,1.9999,0.6711,0.9468,1.1843
18697,-1.7615,1.9999,0.7590,0.6288,1.5371
18717,-1.0735,1.9999,0.8127,0.4005,1.7388
18737,-0.4951,1.9999,0.8726,0.3386,1.8305
18757,-0.0972,1.6626,0.9448,0.2718,1.8091
18777,0.5012,-0.0508,1.0139,0.5739,1.3810
18797,1.3171,-1.4041,1.0344,0.8735,0.9938
18817,1.9999,-2.0000,1.0652,0.8775,1.2786
18837,1.9999,-2.0000,1.0486,0.6141,1.7304
18857,1.9999,-2.0000,1.1008,0.4307,2.1040
18877,1.4885,-2.0000,1.0396,0.2367,2.2709
18897,0.3542,-2.0000,0.9348,0.3567,2.1938
18917,-0.8242,-1.2878,0.8000,0.5860,1.8603
18937,-2.0000,1.8306,0.6831,1.2591,1.0337
18957,-2.0000,1.9999,0.7134,0.9220,1.1477
18977,-1.3745,1.9999,0.7905,0.5585,1.4657
18997,-0.8303,1.9999,0.8250,0.3713,1.6713
19017,-0.3716,1.9999,0.9084,0.3068,1.7957
19037,0.0137,1.3921,0.9658,0.2324,1.7299
19057,0.5693,-0.1445,1.0256,0.5678,1.3272
19077,1.3064,-1.3577,1.0383,0.8223,1.0216
19097,1.9999,-2.0000,1.0732,0.8538,1.3324
19117,1.9999,-2.0000,1.0400,0.5973,1.7705
19137,1.9999,-2.0000,1.0737,0.4185,2.1287
19157,1.9480,-2.0000,1.0811,0.2838,2.3818
19177,1.0593,-2.0000,0.9951,0.2224,2.3853
19197,-0.0173,-2.0000,0.9075,0.4455,2.2286
19217,-1.0398,-1.1211,0.7578,0.6385,1.8436
19237,-1.8306,-0.0295,0.6558,0.8084,1.4104
19257,-2.0000,1.1067,0.6572,0.8390,1.2029
19277,-2.0000,1.9999,0.6865,0.8148,1.4160
19297,-1.9888,1.9999,0.7124,0.5686,1.7854
19317,-1.3992,1.9999,0.7993,0.3582,1.9776
19337,-0.9309,1.9999,0.8235,0.2888,2.0509
19357,-0.4941,1.9999,0.8730,0.2912,2.0612
19377,-0.1833,1.9999,0.9463,0.2858,2.0645
19397,0.1736,0.9485,0.9976,0.3689,1.8009
19417,0.6785,-0.2944,1.0281,0.6401,1.3400
19437,1.3113,-1.2710,1.0349,0.7968,1.0475
19457,1.8975,-1.9734,1.0730,0.8312,1.3227
19477,1.9999,-2.0000,1.0430,0.6062,1.7588
19497,1.9999,-2.0000,1.0303,0.4243,2.1128
19517,1.9999,-2.0000,1.0706,0.2974,2.3795
19537,1.9999,-2.0000,1.0847,0.2085,2.5720
19557,1.3477,-2.0000,1.0261,0.1581,2.5754
19577,0.5068,-2.0000,0.9451,0.3386,2.4332
19597,-0.3706,-1.8145,0.8826,0.4940,2.1994
19617,-1.1602,-1.0581,0.7483,0.6277,1.8370
19637,-1.8108,-0.2124,0.6521,0.7337,1.4936
19657,-2.0000,0.7209,0.6460,0.7450,1.3220
19677,-2.0000,1.6445,0.6755,0.7541,1.4300
19697,-1.3987,1.9999,0.7917,0.5818,1.6176
19717,-1.0090,1.9999,0.8230,0.4135,1.7724
19737,-0.6489,1.9999,0.8315,0.3278,1.8660
19757,-0.3179,1.9999,0.9055,0.2937,1.9267
19777,-0.0559,1.8687,0.9519,0.2518,1.9419
19797,0.2686,0.7764,1.0022,0.3665,1.6823
19817,0.6851,-0.2332,1.0308,0.5727,1.3006
19837,1.1821,-1.0742,1.0293,0.6936,1.0700
19857,1.6770,-1.7288,1.0481,0.7309,1.2746
19877,1.9999,-2.0000,1.0713,0.6341,1.7156
19897,1.9999,-2.0000,1.0417,0.4436,2.0800
19917,1.9999,-2.0000,1.0298,0.3105,2.3498
19937,1.9999,-2.0000,1.0620,0.2176,2.5481
19957,1.9999,-2.0000,1.0908,0.1530,2.6921
19977,1.7610,-2.0000,1.0574,0.0858,2.7426
19997,1.1433,-2.0000,1.0090,0.2006,2.6587
20017,0.4636,-2.0000,0.9607,0.3410,2.4936
20037,-0.2136,-1.9624,0.8977,0.4413,2.3042
20057,-0.8984,-1.4045,0.8127,0.5383,2.0180
20077,-1.4797,-0.7451,0.7007,0.6190,1.7110
20097,-1.9575,-0.0315,0.6482,0.6743,1.5047
20117,-2.0000,0.7302,0.6519,0.6491,1.4454
20137,-2.0000,1.4705,0.6655,0.6479,1.5698
20157,-2.0000,1.9999,0.6816,0.6020,1.8490
20177,-2.0000,1.9999,0.7048,0.4213,2.1279
20197,-1.9695,1.9999,0.7239,0.2923,2.3433
20217,-1.5935,1.9999,0.7822,0.2055,2.4270
20237,-1.2581,1.9999,0.8064,0.1975,2.4294
20257,-0.9490,1.9999,0.8293,0.2148,2.3875
20277,-0.6743,1.9999,0.8281,0.2267,2.3264
20297,-0.4094,1.9999,0.8838,0.2369,2.2676
20317,-0.2056,1.9999,0.9360,0.2277,2.2258
20337,-0.0259,1.7712,0.9463,0.2163,2.1374
20357,0.2222,1.0098,0.9978,0.3433,1.8821
20377,0.4988,0.2563,1.0337,0.4737,1.5398
20397,0.8179,-0.4189,1.0293,0.5548,1.2299
20417,1.1763,-1.0012,1.0466,0.5933,1.1323
20437,1.5154,-1.5144,1.0413,0.5994,1.3272
20457,1.9999,-2.0000,1.0222,0.6210,1.7454
20477,1.9999,-2.0000,1.0374,0.4347,2.1010
20497,1.9999,-2.0000,1.0635,0.3045,2.3691
20517,1.9999,-2.0000,1.0933,0.2137,2.5653
20537,1.9999,-2.0000,1.0793,0.1493,2.7026
20557,1.6438,-2.0000,1.0515,0.0970,2.7264
20577,1.2000,-2.0000,1.0107,0.1766,2.6587
20597,0.7351,-2.0000,0.9778,0.2596,2.5377
20617,0.2483,-2.0000,0.9385,0.3272,2.3960
20637,-0.1919,-2.0000,0.8958,0.3613,2.2728
20657,-0.6338,-1.7131,0.8604,0.3921,2.1167
20677,-1.0295,-1.3401,0.8000,0.4222,1.9414
20697,-1.4009,-0.9500,0.7275,0.4496,1.7846
20717,-1.7124,-0.5342,0.6707,0.4639,1.6815
20737,-1.9727,-0.0967,0.6404,0.4707,1.6600
20757,-2.0000,0.3494,0.6423,0.4387,1.6853
20777,-2.0000,0.7734,0.6487,0.4190,1.7562
20797,-2.0000,1.1851,0.6521,0.4093,1.8754
20817,-2.0000,1.6006,0.6643,0.4074,2.0434
20837,-2.0000,1.9670,0.6892,0.3934,2.2506
20857,-2.0000,1.9999,0.7039,0.2853,2.4299
20877,-2.0000,1.9999,0.6855,0.1996,2.5653
20897,-2.0000,1.9999,0.6958,0.1398,2.6657
20917,-2.0000,1.9999,0.7014,0.0979,2.7385
20937,-1.9592,1.9999,0.7178,0.0682,2.7830
20957,-1.7898,1.9999,0.7417,0.0719,2.7812
20977,-1.6001,1.9999,0.7825,0.1016,2.7463
20997,-1.4155,1.9999,0.8015,0.1249,2.6902
21017,-1.2590,1.9999,0.8108,0.1337,2.6262
21037,-1.1289,1.9999,0.8345,0.1330,2.5647
21057,-1.0015,1.9999,0.8386,0.1311,2.5052
21077,-0.8938,1.9999,0.8386,0.1239,2.4511
21097,-0.7920,1.9999,0.8279,0.1170,2.4015
21117,-0.6816,1.9999,0.8396,0.1151,2.3573
21137,-0.5925,1.9999,0.8335,0.1072,2.3188
21157,-0.5078,1.9999,0.8479,0.1006,2.2876
21177,-0.4180,1.9999,0.8682,0.0978,2.2626
21197,0.3701,0.7515,1.0173,0.4850,1.8856
21217,0.4358,0.5417,1.0273,0.4015,1.6045
21237,0.5227,0.3726,1.0259,0.3373,1.4057
21257,0.5828,0.2053,1.0261,0.2879,1.2729
21277,0.6609,0.0684,1.0415,0.2490,1.2031
21297,0.7271,-0.0835,1.0457,0.2236,1.1769
21317,0.7852,-0.2339,1.0415,0.2044,1.1827
21337,0.8660,-0.3352,1.0422,0.1814,1.2194
21357,0.9167,-0.4507,1.0413,0.1646,1.2712
21377,0.9744,-0.5078,1.0444,0.1387,1.3326
21397,0.9980,-0.5894,1.0415,0.1219,1.3917
21417,1.0313,-0.6157,1.0457,0.0971,1.4473
21437,1.0547,-0.6624,1.0479,0.0836,1.4982
21457,1.0742,-0.6895,1.0483,0.0685,1.5423
21477,1.0767,-0.7051,1.0513,0.0524,1.5771
21497,1.0803,-0.6860,1.0552,0.0325,1.6012
21517,1.0713,-0.6670,1.0457,0.0165,1.6124
21537,1.0425,-0.6077,1.0471,0.0090,1.6079
21557,1.0098,-0.5679,1.0491,0.0211,1.5942
21577,0.9707,-0.4922,1.0442,0.0403,1.5677
21597,0.9253,-0.4221,1.0464,0.0532,1.5338
21617,0.9014,-0.3096,1.0522,0.0709,1.4966
21637,0.8303,-0.2563,1.0500,0.0736,1.4535
21657,0.7920,-0.1152,1.0481,0.0943,1.4070
21677,0.7295,0.0029,1.0383,0.1061,1.3574
21697,0.6814,0.1338,1.0510,0.1160,1.3170
21717,0.6169,0.2681,1.0405,0.1259,1.2797
21737,0.5642,0.4275,1.0322,0.1383,1.2537
21757,0.5044,0.5845,1.0186,0.1473,1.2408
21777,0.4382,0.7585,1.0232,0.1589,1.2502
21797,0.3813,0.9717,1.0061,0.1773,1.2851
21817,0.3162,1.1829,1.0029,0.1904,1.3501
21837,0.2312,1.3635,0.9846,0.1930,1.4331
21857,0.1855,1.6118,0.9927,0.2100,1.5556
21877,0.1157,1.8232,0.9880,0.2138,1.6975
21897,0.0574,1.9999,0.9858,0.2055,1.8469
21917,0.0037,1.9999,0.9744,0.1496,1.9545
21937,0.8103,-0.1055,1.0593,0.5723,1.5643
21957,0.6992,0.1543,1.0396,0.3158,1.3994
21977,0.5791,0.4385,1.0381,0.1288,1.3467
21997,0.4663,0.7522,1.0249,0.0106,1.3488
22017,0.3513,1.0947,0.9968,0.1157,1.3918
22037,0.2346,1.4114,0.9907,0.1822,1.4789
22057,0.1670,1.7461,0.9985,0.2292,1.6219
22077,0.0762,1.9999,0.9851,0.2413,1.7884
22097,-0.0151,1.9999,0.9646,0.1793,1.9086
22117,-0.0813,1.9999,0.9446,0.1357,1.9941
22137,-0.1936,1.9999,0.9165,0.1179,2.0529
22157,-0.3113,1.9999,0.8972,0.1117,2.0956
22177,-0.4285,1.9999,0.8579,0.1117,2.1262
22197,-0.5754,1.9999,0.8452,0.1204,2.1551
22217,-0.7124,1.9999,0.8428,0.1243,2.1864
22237,-0.8408,1.9999,0.8401,0.1251,2.2211
22257,-1.0107,1.9999,0.8425,0.1382,2.2645
22277,-1.1785,1.9999,0.8296,0.1471,2.3157
22297,-1.3945,1.9999,0.8115,0.1680,2.3809
22317,-1.6045,1.9999,0.7859,0.1810,2.4595
22337,-1.8354,1.9999,0.7319,0.1974,2.5524
22357,-2.0000,1.9999,0.7200,0.1876,2.6521
22377,-2.0000,1.9999,0.6780,0.1334,2.7240
22397,-2.0000,1.9999,0.6921,0.0926,2.7781
22417,-2.0000,1.9999,0.6960,0.0646,2.8174
22437,-2.0000,1.9999,0.6912,0.0455,2.8452
22457,-2.0000,1.5537,0.6670,0.1378,2.7712
22477,-2.0000,1.0378,0.6450,0.2497,2.6226
22497,-2.0000,0.4680,0.6387,0.3453,2.4340
22517,-2.0000,-0.0486,0.6531,0.3965,2.2603
22537,-1.9175,-0.6067,0.6687,0.4452,2.1122
22557,-1.5286,-1.1414,0.7473,0.4897,1.9552
22577,-1.0657,-1.6169,0.8210,0.5269,1.8318
22597,-0.5750,-2.0000,0.8787,0.5436,1.7861
22617,-0.0432,-2.0000,0.9238,0.4898,1.7692
22637,0.5154,-2.0000,0.9578,0.4841,1.7886
22657,1.0662,-2.0000,1.0269,0.4932,1.8786
22677,-0.4771,-2.0000,0.8901,0.1737,1.9764
22697,0.1101,-2.0000,0.9375,0.1104,2.0428
22717,0.6895,-2.0000,0.9834,0.2370,2.1031
22737,1.2957,-2.0000,1.0264,0.3460,2.1992
22757,1.8184,-2.0000,1.0669,0.3990,2.3553
22777,1.9999,-2.0000,1.0813,0.3338,2.5247
22797,1.9999,-2.0000,1.0425,0.2330,2.6572
22817,1.9999,-2.0000,1.0076,0.1632,2.7541
22837,1.9999,-2.0000,0.9973,0.1144,2.8244
22857,1.9999,-2.0000,1.0322,0.0801,2.8790
22877,1.9999,-2.0000,1.0566,0.0570,2.9205
22897,1.9999,-1.7925,1.0457,0.0719,2.9070
22917,1.5664,-1.1812,1.0615,0.2479,2.6953
22937,1.0955,-0.4739,1.0605,0.4271,2.3290
22957,0.6907,0.4097,1.0496,0.5898,1.8733
22977,0.3416,1.4194,0.9951,0.7317,1.4641
22997,0.0750,1.9999,0.9802,0.7039,1.3544
23017,-0.2104,1.9999,0.9082,0.5341,1.4419
23037,-0.5679,1.9999,0.8340,0.4424,1.5824
23057,-0.9436,1.9999,0.8337,0.3964,1.7498
23077,-1.3792,1.9999,0.8105,0.3929,1.9367
23097,-1.8826,1.9999,0.7285,0.4198,2.1533
23117,-2.0000,1.9999,0.6892,0.3292,2.3527
23137,-2.0000,1.9999,0.6899,0.2304,2.5087
23157,-2.0000,1.5693,0.6565,0.1834,2.5289
23177,-2.0000,0.6284,0.6428,0.3644,2.3684
23197,-2.0000,-0.3059,0.6633,0.5287,2.1528
23217,-1.5913,-1.1782,0.7507,0.6319,1.9125
23237,-0.8418,-1.9460,0.8721,0.7251,1.7060
23257,-0.0032,-2.0000,0.9346,0.6590,1.5767
23277,0.9116,-2.0000,0.9983,0.6783,1.5540
23297,1.7244,-2.0000,1.0544,0.6971,1.7269
23317,1.9999,-2.0000,1.0649,0.5664,2.0197
23337,1.9999,-2.0000,1.0083,0.3956,2.2793
23357,1.9999,-2.0000,0.9990,0.2768,2.4814
23377,1.9999,-2.0000,1.0393,0.1944,2.6355
23397,1.9999,-1.9358,1.0415,0.1318,2.7333
23417,1.5918,-1.1609,1.0635,0.2208,2.5729
23437,0.9805,-0.1443,1.0750,0.5018,2.1651
23457,0.5063,1.0886,1.0161,0.7472,1.6495
23477,1.1414,-0.3574,1.0667,0.0512,1.6337
23497,0.5623,0.8223,1.0308,0.4284,1.4340
23517,0.2051,1.9999,0.9905,0.6676,1.3808
23537,-0.1875,1.9999,0.8904,0.5218,1.4655
23557,-0.6506,1.9999,0.8362,0.4567,1.5979
23577,-1.1765,1.9999,0.8252,0.4489,1.7710
23597,-1.8235,1.9999,0.7422,0.4950,1.9967
23617,-2.0000,1.9999,0.6848,0.3989,2.2271
23637,-2.0000,1.9999,0.6882,0.2791,2.4150
23657,-2.0000,0.9097,0.6433,0.3351,2.3223
23677,-2.0000,-0.3521,0.6604,0.5866,2.0833
23697,-1.4150,-1.4683,0.7966,0.7401,1.7883
23717,-0.3979,-2.0000,0.9119,0.7677,1.5363
23737,0.7734,-2.0000,0.9941,0.7705,1.3938
23757,1.8411,-2.0000,1.0706,0.8172,1.5370
23777,1.9999,-2.0000,1.0349,0.6151,1.8688
23797,1.9999,-2.0000,0.9897,0.4300,2.1696
23817,1.9999,-2.0000,1.0356,0.3017,2.4092
23837,1.9999,-1.6995,1.0422,0.1962,2.5230
23857,1.2844,-0.5249,1.0718,0.3689,2.2495
23877,0.6038,0.9768,1.0251,0.7487,1.7162
23897,0.1343,1.9999,0.9626,0.8614,1.3468
23917,-0.4280,1.9999,0.8494,0.6856,1.2822
23937,-1.0227,1.9999,0.8428,0.6006,1.4269
23957,-1.7896,1.9999,0.7446,0.6151,1.6939
23977,-2.0000,1.9999,0.6846,0.4894,1.9976
23997,-2.0000,1.6963,0.6553,0.3193,2.1789
24017,-2.0000,0.1985,0.6506,0.4741,2.0341
24037,-1.7278,-1.2019,0.7466,0.7171,1.7867
24057,-0.5652,-2.0000,0.9055,0.7986,1.5128
24077,0.7864,-2.0000,1.0068,0.8059,1.3327
24097,1.9999,-2.0000,1.0776,0.8755,1.4843
24117,1.9999,-2.0000,1.0054,0.6115,1.8365
24137,1.9999,-2.0000,1.0078,0.4281,2.1536
24157,1.9999,-2.0000,1.0388,0.3002,2.4000
24177,1.5198,-0.8872,1.0793,0.2528,2.2719
24197,0.7200,0.7078,1.0513,0.6836,1.7776
24217,0.1863,1.9999,0.9712,0.8972,1.3516
24237,-0.4282,1.9999,0.8591,0.7135,1.2519
24257,-1.1199,1.9999,0.8398,0.6392,1.3898
24277,-1.9907,1.9999,0.7141,0.6705,1.6866
24297,-1.5012,1.9999,0.8008,0.3414,1.9462
24317,-2.0000,1.9999,0.6692,0.3736,2.2046
24337,-2.0000,1.8550,0.6697,0.2482,2.3717
24357,-2.0000,0.2473,0.6533,0.4748,2.1813
24377,-1.6333,-1.3433,0.7683,0.7876,1.8444
24397,-0.3000,-2.0000,0.9292,0.8480,1.4796
24417,1.2656,-2.0000,1.0361,0.9145,1.2584
24437,1.9999,-2.0000,1.0437,0.8299,1.4927
24457,1.9999,-2.0000,0.9902,0.5801,1.8624
24477,1.9999,-2.0000,1.0364,0.4068,2.1827
24497,1.6824,-1.1213,1.0706,0.2129,2.1907
24517,0.7710,0.6177,1.0422,0.6391,1.7392
24537,0.1614,1.9999,0.9736,0.8977,1.3149
24557,-0.5122,1.9999,0.8474,0.7222,1.2196
24577,-1.3323,1.9999,0.8230,0.6765,1.3816
24597,-2.0000,1.9999,0.6841,0.6464,1.7035
24617,-2.0000,1.9373,0.6765,0.4446,2.0083
24637,-2.0000,0.1807,0.6553,0.4887,1.8986
24657,-1.5706,-1.4805,0.7903,0.7798,1.6399
24677,-0.1135,-2.0000,0.9473,0.8027,1.3610
24697,1.5044,-2.0000,1.0454,0.9051,1.2617
24717,1.9999,-2.0000,1.0288,0.7621,1.5737
24737,1.9999,-2.0000,1.0073,0.5332,1.9428
24757,1.9999,-1.9297,1.0347,0.3647,2.2294
24777,1.3313,-0.4880,1.0869,0.3329,2.0440
24797,0.4990,1.5615,1.0205,0.8756,1.5015
24817,-0.1511,1.9999,0.8899,0.8063,1.2271
24837,-0.9429,1.9999,0.8508,0.7024,1.2596
24857,-1.9822,1.9999,0.7178,0.7446,1.5330
24877,-2.0000,1.9999,0.6860,0.5269,1.8811
24897,-2.0000,0.5056,0.6294,0.4276,1.8563
24917,-1.7646,-1.3389,0.7751,0.7616,1.6464
24937,-0.2065,-2.0000,0.9458,0.8064,1.3643
24957,1.5012,-2.0000,1.0457,0.9173,1.2424
24977,1.9999,-2.0000,1.0266,0.7708,1.5525
24997,1.9999,-2.0000,1.0051,0.5392,1.9266
25017,1.9999,-1.7729,1.0410,0.3522,2.1856
25037,1.1570,-0.0874,1.0850,0.4339,1.9135
25057,0.3318,1.9999,1.0103,0.9646,1.3897
25077,0.5522,1.4346,1.0198,0.4944,1.3425
25097,-0.1475,1.9999,0.8950,0.5849,1.3821
25117,-0.9685,1.9999,0.8418,0.5742,1.5039
25137,-2.0000,1.9999,0.7053,0.6756,1.7514
25157,-2.0000,1.9999,0.6929,0.4733,2.0417
25177,-2.0000,0.1741,0.6392,0.5274,1.8975
25197,-1.4768,-1.6680,0.8154,0.8531,1.5845
25217,0.2336,-2.0000,0.9814,0.8432,1.2665
25237,1.9771,-2.0000,1.0732,0.9856,1.2547
25257,1.9999,-2.0000,0.9841,0.6945,1.6331
25277,1.9999,-2.0000,1.0486,0.4872,2.0107
25297,1.6306,-0.8906,1.0857,0.2514,2.0179
25317,0.6184,1.3416,0.9722,0.8048,1.5090
25337,-0.1582,1.9999,0.8894,0.8280,1.1996
25357,-1.0740,1.9999,0.8423,0.7407,1.2190
25377,-2.0000,1.9999,0.6707,0.7447,1.5103
25397,-2.0000,1.7070,0.6604,0.4845,1.8038
25417,-2.0000,-0.4863,0.6709,0.6265,1.6637
25437,-0.8430,-2.0000,0.8921,0.8426,1.3902
25457,1.1211,-2.0000,1.0291,0.8963,1.1719
25477,1.9999,-2.0000,1.0310,0.8446,1.4198
25497,1.9999,-2.0000,1.0115,0.5909,1.8175
25517,1.9999,-1.4238,1.0479,0.3639,2.0349
25537,0.8452,0.7546,1.0596,0.6420,1.6306
25557,0.0283,1.9999,0.9268,0.8751,1.2378
25577,-0.9080,1.9999,0.8286,0.7602,1.1736
25597,-2.0000,1.9999,0.6919,0.7895,1.4330
25617,-2.0000,1.6265,0.6445,0.5067,1.7195
25637,-2.0000,-0.7239,0.6877,0.6750,1.5829
25657,-0.5364,-2.0000,0.9268,0.8219,1.3121
25677,1.5732,-2.0000,1.0361,0.9583,1.1519
25697,1.9999,-2.0000,1.0037,0.7778,1.4898
25717,1.9999,-2.0000,1.0505,0.5453,1.8949
25737,1.5566,-0.5869,1.0906,0.3077,1.8654
25757,0.4717,1.9871,1.0061,0.9542,1.3661
25777,-0.4392,1.9999,0.8484,0.7745,1.1749
25797,-1.6414,1.9999,0.7561,0.7943,1.2938
25817,-2.0000,1.9999,0.6748,0.6483,1.6515
25837,-2.0000,0.0950,0.6362,0.5249,1.6095
25857,-1.2117,-2.0000,0.8721,0.8717,1.3816
25877,-1.3323,-1.9636,0.8474,0.6017,1.5479
25897,0.8186,-2.0000,1.0237,0.7421,1.4518
25917,1.9999,-2.0000,1.0300,0.8332,1.6043
25937,1.9999,-2.0000,1.0156,0.5830,1.9282
25957,1.8567,-1.1035,1.0581,0.3598,2.0090
25977,0.6509,1.4832,1.0415,0.8704,1.4731
25997,-0.2859,1.9999,0.8779,0.8437,1.1462
26017,-1.4849,1.9999,0.7856,0.8162,1.1881
26037,-2.0000,1.9999,0.6584,0.6988,1.5423
26057,-2.0000,0.1821,0.6311,0.5041,1.5497
26077,-1.2261,-2.0000,0.8662,0.8567,1.3582
26097,1.0417,-2.0000,1.0295,0.8797,1.1528
26117,1.9999,-2.0000,1.0168,0.8483,1.4005
26137,1.9999,-2.0000,1.0374,0.5942,1.8088
26157,1.5764,-0.6187,1.0889,0.3165,1.8090
26177,0.4280,1.9999,0.9893,0.9494,1.3176
26197,-0.5798,1.9999,0.8511,0.7819,1.1430
26217,-1.9363,1.9999,0.7192,0.8447,1.3152
26237,-2.0000,1.7827,0.6670,0.5773,1.6493
26257,-2.0000,-0.8674,0.7036,0.7150,1.5118
26277,-0.2803,-2.0000,0.9575,0.8172,1.2411
26297,1.9999,-2.0000,1.0571,1.0252,1.1666
26317,1.9999,-2.0000,0.9912,0.7166,1.5649
26337,1.9999,-1.5737,1.0510,0.4487,1.8759
26357,0.8394,0.9932,1.0647,0.6768,1.4972
26377,-0.1672,1.9999,0.8870,0.8449,1.1609
26397,-1.4312,1.9999,0.7910,0.8214,1.1711
26417,-2.0000,1.9999,0.6602,0.7149,1.5160
26437,-2.0000,-0.1938,0.6423,0.5785,1.4707
26457,-0.7947,-2.0000,0.9163,0.8205,1.2588
26477,1.6709,-2.0000,1.0479,0.9748,1.1221
26497,1.9999,-2.0000,0.9775,0.7632,1.4862
26517,1.9999,-1.7285,1.0469,0.4976,1.8421
26537,0.9167,0.9133,1.0706,0.6544,1.4907
26557,-0.1729,1.9999,0.8884,0.8513,1.1447
26577,-1.5210,1.9999,0.7690,0.8422,1.1549
26597,-2.0000,1.9999,0.6621,0.7070,1.5162
26617,-2.0000,-0.5486,0.6689,0.6468,1.4344
26637,-0.4275,-2.0000,0.9495,0.8052,1.2053
26657,1.9999,-2.0000,1.0471,1.0186,1.1511
26677,1.9999,-2.0000,0.9966,0.7122,1.5626
26697,1.9409,-1.1145,1.0703,0.4042,1.7817
26717,0.5754,1.9771,1.0320,0.9346,1.3325
26737,0.4871,1.9999,0.9941,0.6650,1.3337
26757,-0.6897,1.9999,0.8542,0.6328,1.3683
26777,-2.0000,1.9999,0.6772,0.7718,1.5678
26797,-2.0000,0.7488,0.6272,0.5159,1.6081
26817,-1.4529,-2.0000,0.8535,0.9471,1.3300
26837,1.2229,-2.0000,1.0388,0.9428,1.0661
26857,1.9999,-2.0000,0.9783,0.8426,1.3513
26877,1.9999,-1.7710,1.0430,0.5567,1.7385
26897,0.9021,1.0745,1.0688,0.6796,1.4040
26917,-0.2778,1.9999,0.8884,0.8270,1.1154
26937,-1.8171,1.9999,0.7197,0.8797,1.1879
26957,-2.0000,1.5481,0.6399,0.5978,1.4818
26977,-1.9565,-1.5076,0.7876,0.8389,1.3824
26997,0.6689,-2.0000,1.0334,0.8607,1.1241
27017,1.9999,-2.0000,1.0046,0.9043,1.2959
27037,1.9999,-1.9563,1.0310,0.6266,1.7106
27057,1.0107,0.8416,1.0854,0.6235,1.4190
27077,-0.2024,1.9999,0.8872,0.8384,1.1034
27097,-1.8174,1.9999,0.7168,0.8903,1.1609
27117,-2.0000,1.5120,0.6326,0.5982,1.4540
27137,-1.9063,-1.6545,0.8022,0.8609,1.3621
27157,0.8777,-2.0000,1.0317,0.8814,1.1119
27177,1.9999,-2.0000,0.9880,0.8776,1.3271
27197,1.9999,-1.7148,1.0486,0.5754,1.6948
27217,0.8257,1.3823,1.0613,0.7658,1.3258
27237,-0.4062,1.9999,0.8647,0.8063,1.0897
27257,-2.0000,1.9999,0.6724,0.8911,1.2305
27277,-2.0000,0.7590,0.6250,0.5163,1.3885
27297,-1.3206,-2.0000,0.8652,0.8553,1.2611
27317,1.6045,-2.0000,1.0479,0.9717,1.1008
27337,1.9999,-2.0000,0.9946,0.7767,1.4619
27357,1.9402,-0.9717,1.0886,0.4458,1.6735
27377,0.4685,1.9999,0.9756,0.9150,1.2482
27397,-0.9182,1.9999,0.8323,0.8136,1.0986
27417,-2.0000,1.9999,0.6550,0.8164,1.3484
27437,-2.0000,-0.4985,0.6611,0.6501,1.3009
27457,-0.2424,-2.0000,0.9895,0.7844,1.1227
27477,1.9999,-2.0000,1.0171,0.9682,1.1855
27497,1.9999,-2.0000,1.0283,0.6779,1.6213
27517,1.2156,0.4780,1.1003,0.5119,1.4504
27537,-0.1125,1.9999,0.8867,0.8454,1.1156
27557,-1.8020,1.9999,0.7107,0.9027,1.1381
27577,-2.0000,1.2703,0.6387,0.5846,1.3841
27597,-2.0000,0.5012,0.6238,0.4075,1.5316
27617,-1.0107,-2.0000,0.9133,0.8300,1.3384
27637,1.9915,-2.0000,1.0354,1.0883,1.0963
27657,1.9999,-2.0000,1.0037,0.7634,1.4778
27677,1.4978,-0.1624,1.1052,0.4067,1.4799
27697,0.1023,1.9999,0.9006,0.8614,1.1171
27717,-1.6003,1.9999,0.7468,0.8813,1.0940
27737,-2.0000,1.4868,0.6436,0.6374,1.3701
27757,-1.7327,-1.9441,0.8340,0.9105,1.2739
27777,1.3945,-2.0000,1.0452,0.9401,1.0885
27797,1.9999,-2.0000,0.9949,0.8034,1.4213
27817,1.8403,-0.6631,1.1018,0.4426,1.5714
27837,0.3118,1.9999,0.9199,0.8844,1.1775
27857,-1.3689,1.9999,0.7683,0.8678,1.0735
27877,-2.0000,1.7827,0.6316,0.7223,1.3647
27897,-1.9080,-1.8435,0.8101,0.9289,1.2644
27917,1.3135,-2.0000,1.0391,0.9317,1.0654
27937,1.9999,-2.0000,0.9971,0.8145,1.3946
27957,1.7866,-0.5515,1.1045,0.4363,1.5271
27977,0.2205,1.9999,0.9097,0.8720,1.1494
27997,-1.5295,1.9999,0.7449,0.8855,1.0785
28017,-2.0000,1.3962,0.6343,0.6467,1.3206
28037,-1.5903,-2.0000,0.8511,0.9027,1.2230
28057,1.6807,-2.0000,1.0359,0.9803,1.0834
28077,1.9999,-2.0000,1.0081,0.7638,1.4715
28097,1.5073,-0.0112,1.1135,0.4302,1.4621
28117,-0.0103,1.9999,0.8931,0.8528,1.1128
28137,-1.9023,1.9999,0.7048,0.9377,1.1179
28157,-2.0000,0.6594,0.6289,0.5523,1.2697
28177,-0.9863,-2.0000,0.9199,0.8040,1.1687
28197,1.9999,-2.0000,1.0132,1.0112,1.1305
28217,1.9999,-2.0000,1.0303,0.7081,1.5630
28237,1.0505,1.0874,1.0864,0.6659,1.3097
28257,-0.4255,1.9999,0.8855,0.8119,1.0734
28277,-2.0000,1.9999,0.6675,0.8871,1.2263
28297,-2.0000,-0.6147,0.6765,0.6628,1.2159
28317,0.1853,-2.0000,1.0225,0.7784,1.0701
28337,1.9999,-2.0000,0.9919,0.9073,1.2553
28357,1.9999,-1.2209,1.0730,0.5443,1.5506
28377,0.4871,1.9999,0.9475,0.8888,1.1748
28397,-1.2668,1.9999,0.7852,0.8532,1.0650
28417,-2.0000,1.5464,0.6248,0.7009,1.2970
28437,-1.6025,-2.0000,0.8647,0.9140,1.1929
28457,1.8792,-2.0000,1.0227,1.0168,1.0755
28477,1.9999,-2.0000,1.0056,0.7410,1.4939
28497,1.9999,-1.7131,1.0618,0.4765,1.8577
28517,0.7229,1.9999,1.0349,0.9726,1.3735
28537,-0.9619,1.9999,0.8477,0.8832,1.0924
28557,-2.0000,1.9999,0.6206,0.8567,1.2800
28577,-1.9214,-1.9641,0.8184,0.9779,1.1753
28597,1.5989,-2.0000,1.0281,0.9507,1.0688
28617,1.9999,-2.0000,1.0142,0.7612,1.4684
28637,1.3123,0.6221,1.1152,0.5434,1.3513
28657,-0.3052,1.9999,0.8887,0.8207,1.0823
28677,-2.0000,1.9999,0.6655,0.9081,1.1952
28697,-2.0000,-0.8101,0.6792,0.7006,1.1789
28717,0.4924,-2.0000,1.0256,0.7928,1.0462
28737,1.9999,-2.0000,1.0015,0.8705,1.3034
28757,1.8755,-0.5474,1.1150,0.4835,1.4703
28777,0.1589,1.9999,0.8843,0.8542,1.1193
28797,-1.9072,1.9999,0.6968,0.9533,1.0925
28817,-2.0000,0.1733,0.6292,0.5750,1.1797
28837,-0.4072,-2.0000,0.9878,0.7574,1.0854
28857,1.9999,-2.0000,0.9983,0.9458,1.1985
28877,1.9999,-1.3308,1.0676,0.5769,1.5173
28897,0.5227,1.9999,0.9534,0.8845,1.1578
28917,-1.3989,1.9999,0.7476,0.8754,1.0512
28937,-2.0000,1.1096,0.6135,0.6397,1.2251
28957,-1.1685,-2.0000,0.9211,0.8373,1.1310
28977,1.9999,-2.0000,0.9873,1.0049,1.1097
28997,1.9999,-1.8547,1.0261,0.6802,1.5265
29017,0.7849,1.9999,1.0400,0.9081,1.1900
29037,-0.9690,1.9999,0.8201,0.8080,1.0730
29057,-2.0000,1.8152,0.6079,0.7701,1.3121
29077,-1.7168,-2.0000,0.8459,0.9499,1.1827
29097,1.9646,-2.0000,1.0110,1.0410,1.0558
29117,1.9999,-2.0000,1.0156,0.7374,1.4903
29137,1.0159,1.4692,1.0862,0.7535,1.2414
29157,-0.6794,1.9999,0.8730,0.7991,1.0751
29177,-2.0000,1.9999,0.6267,0.8439,1.2904
29197,-2.0000,-1.8945,0.8008,0.9660,1.2072
29217,1.6289,-2.0000,1.0310,0.9729,1.0614
29237,1.9999,-2.0000,1.0166,0.7699,1.4545
29257,1.1533,1.1018,1.0891,0.6585,1.2602
29277,-0.5457,1.9999,0.8706,0.8033,1.0596
29297,-2.0000,1.9999,0.6379,0.8626,1.2538
29317,-2.0000,-1.7520,0.7820,0.9195,1.1967
29337,1.5210,-2.0000,1.0281,0.9466,1.0597
29357,1.9999,-2.0000,0.9971,0.7762,1.4416
29377,1.9999,-1.5369,1.0591,0.4811,1.7776
29397,0.5972,1.9999,0.9736,0.9519,1.2996
29417,-1.4043,1.9999,0.7607,0.9472,1.0268
29437,-2.0000,0.8164,0.6172,0.6654,1.1042
29457,-0.8074,-2.0000,0.9609,0.7764,1.0581
29477,1.9999,-2.0000,0.9985,0.9435,1.1856
29497,1.9999,-1.1655,1.0869,0.5589,1.4889
29517,0.3804,1.9999,0.9253,0.8678,1.1380
29537,-1.7891,1.9999,0.6997,0.9462,1.0604
29557,-2.0000,0.0552,0.6399,0.5977,1.1302
29577,-0.0781,-2.0000,1.0146,0.7534,1.0395
29597,1.9999,-2.0000,1.0039,0.9060,1.2424
29617,1.8345,-0.2908,1.1123,0.5019,1.3780
29637,-0.0459,1.9999,0.9070,0.8294,1.0822
29657,-2.0000,1.9999,0.6758,0.9372,1.1433
29677,-2.0000,-1.2417,0.7107,0.7852,1.1360
29697,1.1726,-2.0000,1.0334,0.8657,1.0428
29717,1.9999,-2.0000,1.0120,0.7947,1.4124
29737,1.1321,1.3633,1.0984,0.7277,1.2103
29757,-0.7512,1.9999,0.8633,0.8021,1.0568
29777,-2.0000,1.7383,0.5891,0.7878,1.2426
29797,-1.4158,-2.0000,0.9065,0.8940,1.1243
29817,1.9999,-2.0000,0.9863,1.0096,1.0946
29837,1.9999,-1.2922,1.0732,0.6092,1.4210
29857,0.4028,1.9999,0.9094,0.8506,1.1053
29877,-1.9363,1.9999,0.6914,0.9640,1.0747
29897,-2.0000,-0.5432,0.6533,0.6528,1.1094
29917,0.6160,-2.0000,1.0361,0.7930,1.0151
29937,1.9999,-2.0000,1.0100,0.8442,1.3283
29957,1.2720,1.1536,1.1204,0.6718,1.2013
29977,-0.6960,1.9999,0.8975,0.7928,1.0632
29997,-2.0000,1.6108,0.6125,0.7704,1.2237
30017,-1.2212,-2.0000,0.9402,0.8641,1.1039
30037,1.9999,-2.0000,0.9890,0.9896,1.1230
30057,1.9999,-0.7463,1.1177,0.5644,1.3716
30077,0.0811,1.9999,0.8892,0.8234,1.0835
30097,-2.0000,1.9999,0.6704,0.9429,1.1323
30117,-2.0000,-1.7156,0.7664,0.8940,1.1366
30137,1.7642,-2.0000,0.9966,0.9639,1.0808
30157,1.9999,-1.8389,1.0359,0.7063,1.4798
30177,0.6665,1.9999,0.9636,0.8965,1.1266
30197,-1.6946,1.9999,0.7192,0.9370,1.0278
30217,-2.0000,-0.4495,0.6433,0.6517,1.0646
30237,0.6133,-2.0000,1.0364,0.7754,1.0126
30257,1.9999,-2.0000,0.9731,0.8293,1.3406
30277,1.9999,-1.2361,1.0745,0.4906,1.6435
30297,0.3267,1.9999,0.8789,0.9164,1.1810
30317,-2.0000,1.9999,0.6721,1.0337,1.0093
30337,-2.0000,-1.3870,0.7214,0.8110,1.0544
30357,1.5237,-2.0000,0.9983,0.8827,1.0751
30377,1.9999,-1.9463,1.0261,0.7221,1.4982
30397,0.7185,1.9999,0.9814,0.9089,1.1346
30417,-1.6667,1.9999,0.7122,0.9398,1.0127
30437,-2.0000,-0.5598,0.6433,0.6694,1.0443
30457,0.8093,-2.0000,1.0225,0.7918,1.0053
30477,1.9999,-2.0000,1.0139,0.8076,1.3762
30497,1.0005,1.9999,1.0745,0.8939,1.1437
30517,-1.3242,1.9999,0.7668,0.8489,1.0661
30537,-2.0000,-0.0779,0.6267,0.6460,1.0684
30557,0.4055,-2.0000,1.0381,0.7731,0.9884
30577,1.9999,-2.0000,1.0176,0.8474,1.3111
30597,1.0977,1.9045,1.1057,0.8502,1.1546
30617,-1.1785,1.9999,0.7886,0.8105,1.0970
30637,-2.0000,0.1982,0.6208,0.6398,1.1021
30657,0.1748,-2.0000,1.0371,0.7752,0.9900
30677,1.9999,-2.0000,1.0098,0.8716,1.2724
30697,1.1772,1.7327,1.1226,0.7965,1.1609
30717,-1.1011,1.9999,0.8167,0.7988,1.1037
30737,-2.0000,0.2737,0.6143,0.6430,1.1061
30757,0.1292,-2.0000,1.0444,0.7743,0.9950
30777,1.9999,-2.0000,1.0105,0.8739,1.2717
30797,1.1394,1.7837,1.1084,0.8055,1.1535
30817,-1.1460,1.9999,0.8093,0.8006,1.1073
30837,-2.0000,0.1174,0.6252,0.6452,1.0993
30857,0.2957,-2.0000,1.0403,0.7794,0.9896
30877,1.9999,-2.0000,1.0178,0.8600,1.2925
30897,1.0627,1.9999,1.0911,0.8648,1.1489
30917,-1.3477,1.9999,0.7695,0.8302,1.1128
30937,-2.0000,-0.3391,0.6260,0.6754,1.0744
30957,0.7205,-2.0000,1.0256,0.8064,0.9808
30977,1.9999,-2.0000,1.0198,0.8230,1.3434
30997,0.8450,1.9999,1.0000,0.8643,1.1111
31017,-1.7222,1.9999,0.6963,0.9168,1.0667
31037,-2.0000,-1.0969,0.6804,0.7638,1.0655
31057,1.4177,-2.0000,0.9817,0.8900,1.0192
31077,1.9999,-1.6846,1.0554,0.7073,1.3947
31097,0.5042,1.9999,0.8818,0.8644,1.0620
31117,-2.0000,1.9999,0.6765,0.9770,1.0486
31137,-2.0000,0.9438,0.5813,0.5508,1.2769
31157,-0.3540,-2.0000,1.0354,0.8214,1.0612
31177,1.9999,-2.0000,1.0054,0.9729,1.1327
31197,1.1616,1.8225,1.1143,0.8115,1.0655
31217,-1.2441,1.9999,0.7793,0.7737,1.1155
31237,-2.0000,-0.3525,0.6379,0.6620,1.0990
31257,0.8220,-2.0000,1.0271,0.8318,0.9749
31277,1.9999,-2.0000,1.0215,0.8247,1.3383
31297,0.7158,1.9999,0.9612,0.8581,1.0799
31317,-1.9495,1.9999,0.6755,0.9595,1.0702
31337,-2.0000,-1.6414,0.7227,0.8626,1.1092
31357,1.9077,-2.0000,0.9590,0.9854,1.0785
31377,1.9999,-1.2019,1.0759,0.6115,1.3865
31397,0.2253,1.9999,0.8721,0.8534,1.0438
31417,-2.0000,1.9999,0.6750,0.9603,1.0711
31437,-1.8577,-2.0000,0.8735,0.9238,1.1297
31457,1.9999,-2.0000,0.9800,0.9866,1.1446
31477,1.9072,0.1128,1.1409,0.6035,1.2461
31497,-0.3862,1.9999,0.9204,0.8013,1.0429
31517,-2.0000,1.2244,0.5571,0.7641,1.0686
31537,-0.5347,-2.0000,1.0374,0.7715,1.0094
31557,1.9999,-2.0000,1.0073,0.9035,1.2299
31577,1.1770,1.9463,1.1221,0.8509,1.1397
31597,-1.3254,1.9999,0.7649,0.8156,1.1223
31617,-2.0000,-0.7024,0.6401,0.7279,1.0565
31637,1.1653,-2.0000,0.9897,0.8567,0.9849
31657,1.9999,-1.7322,1.0486,0.7351,1.3595
31677,0.4993,1.9999,0.8835,0.8470,1.0625
31697,-2.0000,1.9999,0.6860,0.9667,1.0727
31717,-2.0000,-2.0000,0.8281,0.9486,1.1452
31737,1.9999,-2.0000,0.9561,0.9938,1.1348
31757,1.9999,-0.2004,1.1375,0.6046,1.2839
31777,-0.2632,1.9999,0.9282,0.8160,1.0390
31797,-2.0000,1.3455,0.5613,0.7987,1.0511
31817,-0.6042,-2.0000,1.0305,0.7709,1.0074
31837,1.9999,-2.0000,1.0120,0.9020,1.2326
31857,1.1475,1.9999,1.1040,0.8646,1.1312
31877,-1.4944,1.9999,0.7261,0.8482,1.1159
31897,-2.0000,-1.1296,0.6697,0.7940,1.0573
31917,1.6096,-2.0000,0.9595,0.9275,1.0143
31937,1.9999,-1.2532,1.0754,0.6323,1.3436
31957,0.2097,1.9999,0.8833,0.8310,1.0486
31977,-2.0000,1.9999,0.6414,0.9488,1.0921
31997,-1.4045,-2.0000,0.9639,0.8703,1.0668
32017,1.9999,-2.0000,0.9910,0.9589,1.1601
32037,1.4004,1.5212,1.1528,0.7628,1.1250
32057,0.2344,1.9999,0.8647,0.6178,1.1984
32077,-2.0000,1.9999,0.6421,0.8558,1.3491
32097,-1.3289,-2.0000,0.9731,0.9551,1.0768
32117,1.9999,-2.0000,1.0068,1.0029,1.0810
32137,1.3059,1.8787,1.1394,0.7993,1.1345
32157,-1.3706,1.9999,0.7510,0.7875,1.1775
32177,-2.0000,-1.3181,0.6775,0.8532,1.0634
32197,1.8662,-2.0000,0.9363,0.9835,1.0209
32217,1.9999,-0.6841,1.1104,0.5717,1.2951
32237,-0.0779,1.9999,0.9473,0.8030,1.0680
32257,-2.0000,1.2202,0.5691,0.8048,1.0154
32277,-0.3079,-2.0000,1.0459,0.7553,0.9733
32297,1.9999,-2.0000,1.0276,0.8666,1.2757
32317,0.7842,1.9999,0.9568,0.8393,1.0744
32337,-2.0000,1.9999,0.6719,0.9558,1.1008
32357,-2.0000,-2.0000,0.8533,0.9523,1.1622
32377,1.9999,-2.0000,0.9558,0.9993,1.1356
32397,1.5835,1.2163,1.1589,0.7398,1.1066
32417,-1.0618,1.9999,0.8037,0.7969,1.0523
32437,-2.0000,-0.9985,0.6602,0.7661,1.0176
32457,1.6860,-2.0000,0.9517,0.9163,1.0441
32477,1.9999,-0.7292,1.1118,0.5744,1.3128
32497,-0.0640,1.9999,0.9541,0.8140,1.0652
32517,-2.0000,0.9856,0.5554,0.7843,0.9710
32537,0.0215,-2.0000,1.0481,0.7336,0.9665
32557,1.9999,-1.9673,1.0354,0.8256,1.3214
32577,0.5610,1.9999,0.8450,0.8428,1.0362
32597,-2.0000,1.9999,0.6885,0.9548,1.0800
32617,-1.4526,-2.0000,0.9634,0.8665,1.0845
32637,1.9999,-2.0000,1.0107,0.9592,1.1759
32657,1.1387,1.9999,1.0728,0.8656,1.0741
32677,-1.9182,1.9999,0.6819,0.9173,1.1347
32697,-2.0000,-2.0000,0.8062,0.9576,1.1648
32717,1.9999,-2.0000,0.9590,1.0047,1.1271
32737,1.6167,1.3462,1.1667,0.7745,1.1071
32757,-1.2007,1.9999,0.7705,0.8130,1.0613
32777,-2.0000,-1.6262,0.7000,0.8890,1.0416
32797,1.9999,-2.0000,0.9241,0.9639,1.1169
32817,1.9999,0.3154,1.1445,0.6261,1.2575
32837,-0.6345,1.9999,0.8884,0.8224,1.0422
32857,-2.0000,-0.7217,0.6433,0.7696,0.9266
32877,1.5967,-2.0000,0.9238,0.8471,1.0713
32897,1.9999,-0.4512,1.1128,0.5418,1.3232
32917,-0.2202,1.9999,0.9607,0.8176,1.0758
32937,-2.0000,0.0637,0.6042,0.7465,0.9059
32957,0.9685,-2.0000,0.9722,0.7521,1.0097
32977,1.9999,-0.9817,1.0874,0.5939,1.3169
32997,0.0386,1.9999,0.9390,0.8113,1.0691
33017,-2.0000,0.6814,0.5483,0.7691,0.9217
33037,0.4631,-2.0000,0.9971,0.7300,0.9559
33057,1.9999,-1.3640,1.0764,0.6840,1.2859
33077,0.2092,1.9999,0.8853,0.8097,1.0373
33097,-1.7139,1.9999,0.6809,0.8637,1.1104
33117,-2.0000,-2.0000,0.8025,0.9723,1.1183
33137,1.9999,-2.0000,0.9556,0.9966,1.1098
33157,1.5193,1.7419,1.1616,0.8494,1.0893
33177,-1.4683,1.9999,0.7151,0.8388,1.0904
33197,-2.0000,-2.0000,0.7646,0.9780,1.0843
33217,1.9999,-2.0000,0.9412,0.9700,1.1373
33237,1.6265,1.4375,1.1677,0.7883,1.1305
33257,-1.2878,1.9999,0.7588,0.8392,1.0591
33277,-2.0000,-2.0000,0.7595,0.9786,1.0601
33297,1.9999,-2.0000,0.9436,0.9427,1.1748
33317,1.7312,1.1470,1.1550,0.7370,1.1801
33337,-1.1199,1.9999,0.7864,0.8448,1.0350
33357,-2.0000,-1.8472,0.7263,0.9450,1.0236
33377,1.9999,-2.0000,0.9224,0.9241,1.1815
33397,1.8679,0.8694,1.1440,0.6948,1.2316
33417,-0.9736,1.9999,0.8062,0.8518,1.0237
33437,-2.0000,-1.6145,0.7043,0.9034,0.9798
33457,1.9999,-2.0000,0.9172,0.9125,1.1754
33477,1.9287,0.7275,1.1401,0.6651,1.2648
33497,-0.9102,1.9999,0.8320,0.8563,1.0320
33517,-2.0000,-1.6169,0.6934,0.9123,0.9655
33537,1.9999,-2.0000,0.9153,0.9005,1.1882
33557,1.8999,0.7859,1.1372,0.6668,1.2676
33577,-0.9507,1.9999,0.8259,0.8630,1.0308
33597,-2.0000,-1.7297,0.7083,0.9350,0.9758
33617,1.9999,-2.0000,0.9177,0.8962,1.2021
33637,1.8513,0.9729,1.1455,0.7022,1.2518
33657,-1.0703,1.9999,0.7898,0.8730,1.0244
33677,-2.0000,-1.9363,0.7288,0.9744,1.0016
33697,1.9999,-2.0000,0.9241,0.8971,1.2168
33717,1.7754,1.3198,1.1760,0.7814,1.2226
33737,-1.2349,1.9999,0.7544,0.8795,1.0342
33757,-2.0000,-2.0000,0.7583,0.9858,1.0265
33777,1.9999,-2.0000,0.9521,0.9142,1.2080
33797,1.5930,1.7371,1.1572,0.8601,1.1678
33817,-1.5076,1.9999,0.6982,0.8922,1.0607
33837,-2.0000,-2.0000,0.8010,0.9810,1.0652
33857,1.9999,-2.0000,0.9731,0.9497,1.1721
33877,1.3872,1.9999,1.1294,0.8993,1.1111
33897,-1.9014,1.9999,0.6833,0.9355,1.1166
33917,-2.0000,-2.0000,0.8740,0.9652,1.1524
33937,1.9999,-2.0000,1.0010,0.9927,1.1536
33957,1.1375,1.9999,1.0259,0.8688,1.0363
33977,-2.0000,1.9999,0.6934,0.9197,1.1499
33997,-1.5652,-2.0000,0.9717,0.8869,1.1439
34017,1.9999,-2.0000,1.0195,0.9849,1.1680
34037,0.7578,1.9999,0.8633,0.8293,0.9727
34057,-2.0000,1.9999,0.6704,0.8963,1.1501
34077,-0.6833,-2.0000,1.0637,0.8126,1.0318
34097,1.9999,-1.7517,1.0574,0.8899,1.1632
34117,0.4021,1.9999,0.8562,0.7848,0.9892
34137,-2.0000,1.0122,0.5249,0.7466,0.9872
34157,0.3484,-2.0000,0.9995,0.7620,0.9291
34177,1.9999,-0.9751,1.0918,0.6834,1.1651
34197,0.0161,1.9999,0.9729,0.7645,1.0346
34217,-2.0000,-0.1973,0.5869,0.7238,0.9176
34237,1.3948,-2.0000,0.9226,0.8243,1.0212
34257,1.9999,0.0178,1.1257,0.5785,1.2367
34277,0.7290,1.9999,0.8645,0.7081,1.2183
34297,-2.0000,1.9602,0.6377,0.9523,1.1821
34317,-0.4045,-2.0000,1.0544,0.8572,0.9199
34337,1.9999,-1.4614,1.0710,0.7882,1.1522
34357,0.2539,1.9999,0.9070,0.7381,1.0603
34377,-2.0000,0.3320,0.5386,0.7312,0.9271
34397,1.0254,-2.0000,0.9431,0.7995,0.9446
34417,1.9999,-0.2456,1.1250,0.5816,1.1971
34437,-0.4111,1.9999,0.9314,0.7740,1.0565
34457,-2.0000,-1.4136,0.6550,0.8839,0.9414
34477,1.9999,-2.0000,0.8953,0.8959,1.1781
34497,1.8013,1.4602,1.1658,0.7921,1.2363
34517,-1.4180,1.9999,0.7202,0.9085,1.0501
34537,-2.0000,-2.0000,0.8262,0.9961,1.0303
34557,1.9999,-2.0000,1.0022,0.9263,1.2009
34577,1.1533,1.9999,1.0156,0.8696,1.0739
34597,-2.0000,1.9999,0.6914,0.9527,1.1104
34617,-1.1992,-2.0000,1.0425,0.8479,1.0690
34637,1.9999,-1.9106,1.0391,0.9261,1.1907
34657,0.4431,1.9999,0.8386,0.8052,0.9743
34677,-2.0000,0.6714,0.5144,0.7176,0.9367
34697,0.8069,-2.0000,0.9531,0.7775,0.9335
34717,1.9999,-0.2075,1.1204,0.6183,1.1434
34737,-0.4692,1.9999,0.9333,0.7687,1.0314
34757,-2.0000,-1.7871,0.6824,0.9392,0.9921
34777,1.9999,-2.0000,0.9172,0.8895,1.2228
34797,1.6113,1.9999,1.1697,0.9301,1.1906
34817,-1.8640,1.9999,0.6821,0.9714,1.0827
34837,-1.9951,-2.0000,0.9385,0.9778,1.1171
34857,1.9999,-2.0000,1.0188,0.9679,1.1828
34877,0.7131,1.9999,0.8367,0.8316,0.9635
34897,-2.0000,1.3210,0.5752,0.7916,1.0052
34917,0.2830,-2.0000,0.9861,0.7683,0.9197
34937,1.9999,-0.5837,1.1072,0.6647,1.1095
34957,-0.2544,1.9999,0.9761,0.7428,1.0390
34977,-2.0000,-1.4897,0.6748,0.8758,0.9840
34997,1.9999,-2.0000,0.9065,0.9040,1.1905
35017,1.6799,1.9999,1.1711,0.9250,1.2056
35037,-1.8359,1.9999,0.6790,0.9625,1.0979
35057,-1.9917,-2.0000,0.9294,0.9872,1.1040
35077,1.9999,-2.0000,1.0103,0.9671,1.1735
35097,0.6628,1.9999,0.8533,0.8240,0.9642
35117,-2.0000,0.9771,0.5347,0.7483,0.9572
35137,0.6450,-2.0000,0.9553,0.7767,0.9123
35157,1.9999,-0.1064,1.1282,0.6322,1.1114
35177,-0.5352,1.9999,0.9119,0.7546,1.0350
35197,-2.0000,-2.0000,0.7227,0.9856,1.0199
35217,1.9999,-2.0000,0.9465,0.8914,1.2421
35237,1.4229,1.9999,1.0991,0.9136,1.1411
35257,-2.0000,1.9999,0.6821,0.9895,1.0800
35277,-1.1704,-2.0000,1.0508,0.8439,1.0474
35297,1.9999,-1.5127,1.0632,0.8430,1.1556
35317,0.2644,1.9999,0.9341,0.7712,1.0147
35337,-2.0000,-0.5747,0.5989,0.7283,0.9433
35357,1.8926,-2.0000,0.8765,0.9086,1.0962
35377,1.9246,1.5803,1.1733,0.8299,1.2279
35397,-1.5676,1.9999,0.6772,0.9202,1.0745
35417,-2.0000,-0.7498,0.6221,0.7499,0.9903
35437,1.9949,-2.0000,0.8701,1.0121,0.9577
35457,1.8677,1.7756,1.1765,0.8389,1.1864
35477,-1.6738,1.9999,0.6741,0.8961,1.1351
35497,-2.0000,-2.0000,0.9202,1.0199,1.0624
35517,1.9999,-2.0000,1.0159,0.9726,1.1367
35537,0.6023,1.9999,0.8420,0.8058,0.9543
35557,-2.0000,0.3186,0.5469,0.7012,0.9003
35577,1.2649,-2.0000,0.8833,0.8249,0.9454
35597,1.9999,0.9380,1.1362,0.7124,1.1369
35617,-1.1892,1.9999,0.7349,0.8315,1.0381
35637,-2.0000,-2.0000,0.8301,0.9989,1.0162
35657,1.9999,-2.0000,1.0144,0.9298,1.1892
35677,0.7896,1.9999,0.8547,0.8388,0.9770
35697,-2.0000,0.7686,0.5505,0.7565,0.8950
35717,0.9243,-2.0000,0.9084,0.7818,0.9156
35737,1.9999,0.6733,1.1345,0.6729,1.1191
35757,-1.0295,1.9999,0.7744,0.8002,1.0394
35777,-2.0000,-2.0000,0.8218,0.9975,1.0184
35797,1.9999,-2.0000,1.0171,0.9231,1.2033
35817,0.8176,1.9999,0.8506,0.8434,0.9855
35837,-2.0000,0.7256,0.5569,0.7581,0.8888
35857,0.9988,-2.0000,0.8796,0.7858,0.9184
35877,1.9999,0.8071,1.1436,0.6881,1.1284
35897,-1.1294,1.9999,0.7537,0.8167,1.0430
35917,-2.0000,-2.0000,0.8547,0.9995,1.0246
35937,1.9999,-2.0000,1.0129,0.9282,1.1967
35957,0.7065,1.9999,0.8328,0.8346,0.9668
35977,-2.0000,0.3113,0.5383,0.7249,0.8628
35997,1.3525,-2.0000,0.8706,0.8202,0.9631
36017,1.9999,1.3784,1.1558,0.7922,1.1644
36037,-1.4609,1.9999,0.6824,0.8771,1.0649
36057,-2.0000,-2.0000,0.9363,1.0077,1.0428
36077,1.9999,-2.0000,1.0251,0.9477,1.1752
36097,0.5105,1.9999,0.8848,0.8159,0.9625
36117,-2.0000,-0.5422,0.5833,0.7241,0.9030
36137,1.9504,-2.0000,0.8547,0.9066,1.1015
36157,1.8247,1.9999,1.1667,0.9239,1.2103
36177,-1.9802,1.9999,0.7109,0.9977,1.1093
36197,-1.4878,-2.0000,1.0244,0.9169,1.0386
36217,1.9999,-1.3521,1.0764,0.8350,1.1065
36237,0.1768,1.9999,0.9861,0.7458,1.0297
36257,-2.0000,-1.6760,0.6636,0.8918,1.0301
36277,1.9999,-2.0000,0.9187,0.8877,1.2479
36297,1.4880,1.9999,1.0908,0.9217,1.1527
36317,-2.0000,1.9999,0.6768,0.9959,1.0739
36337,-0.3474,-2.0000,1.0161,0.7885,0.9500
36357,1.9999,-0.2844,1.1216,0.6652,1.0959
36377,-0.4924,1.9999,0.8938,0.7202,1.0691
36397,-2.0000,-2.0000,0.7642,0.9856,1.0530
36417,1.9999,-2.0000,1.0029,0.9059,1.2501
36437,0.9526,1.9999,0.8606,0.8640,1.0230
36457,-1.5728,1.9999,0.6987,0.8512,1.0633
36477,-1.9731,-2.0000,0.9656,0.9621,1.1312
36497,1.9999,-1.7009,1.0564,0.9320,1.1275
36517,0.3601,1.9999,0.9365,0.7899,0.9676
36537,-2.0000,-1.3757,0.6367,0.8080,1.0106
36557,1.9999,-2.0000,0.9087,0.8996,1.2142
36577,1.5479,1.9999,1.1169,0.9283,1.1464
36597,-2.0000,1.9999,0.6882,0.9940,1.0755
36617,-0.3286,-2.0000,0.9968,0.7902,0.9398
36637,1.9999,-0.0457,1.1245,0.6635,1.0821
36657,-0.6338,1.9999,0.8525,0.7189,1.0735
36677,-2.0000,-2.0000,0.8018,0.9891,1.0568
36697,1.9999,-2.0000,1.0017,0.9190,1.2297
36717,0.7551,1.9999,0.8538,0.8452,0.9906
36737,-2.0000,-0.3135,0.5830,0.7346,0.8714
36757,1.8496,-2.0000,0.8525,0.8753,1.0901
36777,1.8379,1.9999,1.1772,0.9172,1.2239
36797,-2.0000,1.9999,0.7007,1.0039,1.1154
36817,-1.0437,-2.0000,1.0579,0.8673,0.9892
36837,1.9999,-0.6506,1.0967,0.7257,1.0695
36857,-0.2297,1.9999,0.9380,0.7027,1.0621
36877,-2.0000,-2.0000,0.7554,0.9773,1.0640
36897,1.9999,-2.0000,0.9966,0.8991,1.2665
36917,1.0217,1.9999,0.8835,0.8752,1.0406
36937,-2.0000,0.4580,0.5703,0.7663,0.8650
36957,1.3467,-2.0000,0.8472,0.8058,0.9839
36977,1.9999,1.9224,1.1729,0.9045,1.2206
36997,-1.8152,1.9999,0.7046,0.9388,1.1505
37017,-1.5330,-2.0000,1.0168,0.9472,1.0239
37037,1.9999,-1.0295,1.0933,0.7972,1.0618
37057,0.0281,1.9999,0.9861,0.7102,1.0507
37077,-2.0000,-2.0000,0.7273,0.9685,1.0691
37097,1.9999,-2.0000,0.9841,0.8886,1.2837
37117,1.1421,1.9999,0.9050,0.8928,1.0632
37137,-2.0000,0.7820,0.5752,0.8024,0.8785
37157,1.1382,-2.0000,0.8616,0.7865,0.9531
37177,1.9999,1.7788,1.1721,0.8645,1.2055
37197,-1.7444,1.9999,0.7012,0.9149,1.1508
37217,-1.5835,-2.0000,1.0029,0.9540,1.0283
37237,1.9999,-0.9834,1.0898,0.7963,1.0522
37257,-0.0317,1.9999,0.9812,0.7080,1.0461
37277,-2.0000,-2.0000,0.7551,0.9647,1.0796
37297,1.9999,-2.0000,1.0027,0.8942,1.2852
37317,1.0227,1.9999,0.8621,0.8830,1.0361
37337,-2.0000,0.1328,0.5728,0.7555,0.8506
37357,1.5950,-2.0000,0.8367,0.8278,1.0396
37377,1.9353,1.9999,1.1748,0.9195,1.2335
37397,-2.0000,1.9999,0.7100,0.9978,1.1372
37417,-0.9065,-2.0000,1.0417,0.8638,0.9677
37437,1.9999,-0.2290,1.1147,0.6954,1.0562
37457,-0.5037,1.9999,0.8708,0.6919,1.0804
37477,-2.0000,-2.0000,0.7891,0.9872,1.0630
37497,1.9999,-2.0000,1.0002,0.9215,1.2287
37517,0.6558,1.9999,0.8855,0.8401,0.9869
37537,-2.0000,-1.2751,0.6230,0.8194,0.9589
37557,1.9999,-2.0000,0.9075,0.8625,1.2470
37577,1.9999,0.3352,1.1375,0.6113,1.3558
37597,-0.8860,1.9999,0.7886,0.9108,0.9865
37617,-2.0000,-2.0000,0.9001,0.9737,1.0545
37637,1.9999,-1.7996,1.0454,0.8240,1.3013
37657,0.4246,1.9999,0.9622,0.8501,1.0153
37677,-2.0000,-2.0000,0.6785,0.9363,1.1018
37697,1.9999,-2.0000,0.9641,0.8213,1.3981
37717,1.2498,1.9999,0.9404,0.9422,1.1094
37737,-2.0000,0.5339,0.6006,0.8164,0.8366
37757,1.3865,-2.0000,0.8259,0.7789,1.0274
37777,1.9985,1.9999,1.1709,0.9224,1.2502
37797,-2.0000,1.9999,0.6875,1.0006,1.1400
37817,-0.7651,-2.0000,1.0190,0.8567,0.9404
37837,1.9999,0.1545,1.1389,0.6826,1.0621
37857,-0.7900,1.9999,0.7957,0.7048,1.0989
37877,-2.0000,-2.0000,0.9058,0.9945,1.0881
37897,1.9999,-1.6643,1.0569,0.8880,1.1639
37917,0.3354,1.9999,0.9868,0.7889,1.0109
37937,-2.0000,-2.0000,0.7112,0.9385,1.1009
37957,1.9999,-2.0000,0.9783,0.8584,1.3476
37977,1.0459,1.9999,0.8811,0.9102,1.0485
37997,-2.0000,-0.3621,0.5701,0.7694,0.8514
38017,1.9885,-2.0000,0.8474,0.8674,1.1634
38037,1.7542,1.9999,1.1323,0.9079,1.2377
38057,-2.0000,1.9999,0.6685,1.0240,1.0768
38077,0.2891,-2.0000,0.8972,0.8079,0.8691
38097,1.9999,1.4075,1.1633,0.7448,1.1978
38117,-1.5823,1.9999,0.6997,0.8395,1.2074
38137,-1.5681,-2.0000,1.0178,0.9696,1.0369
38157,1.9999,-0.4456,1.1169,0.7584,1.0218
38177,-0.3921,1.9999,0.9192,0.6731,1.0832
38197,-2.0000,-2.0000,0.8181,0.9733,1.1007
38217,1.9999,-2.0000,1.0110,0.9291,1.2412
38237,0.5100,1.9999,0.9485,0.8375,0.9948
38257,-2.0000,-2.0000,0.6968,0.9290,1.1066
38277,1.9999,-2.0000,0.9888,0.8375,1.3834
38297,1.1238,1.9999,0.8787,0.9289,1.0662
38317,-2.0000,-0.4175,0.5879,0.7816,0.8522
38337,1.9999,-2.0000,0.8525,0.8553,1.1914
38357,1.7473,1.9999,1.0879,0.9104,1.2371
38377,-2.0000,1.6357,0.6560,0.9745,0.9936
38397,0.6604,-2.0000,0.8660,0.7913,0.8865
38417,1.9999,1.9999,1.1877,0.8640,1.2773
38437,-1.9890,1.9999,0.7129,0.9426,1.2681
38457,-0.8984,-2.0000,1.0129,0.9090,0.9734
38477,1.9999,0.3672,1.1409,0.7083,1.0600
38497,-0.9402,1.9999,0.7451,0.6868,1.1479
38517,-2.0000,-2.0000,0.9502,1.0033,1.1155
38537,1.9999,-1.0845,1.1040,0.8389,1.0711
38557,0.0022,1.9999,0.9646,0.7229,1.0309
38577,-2.0000,-2.0000,0.7854,0.9437,1.1185
38597,1.9999,-2.0000,0.9846,0.8985,1.2973
38617,0.6824,1.9999,0.9229,0.8696,1.0043
38637,-2.0000,-2.0000,0.6587,0.9333,1.0971
38657,1.9999,-2.0000,0.9724,0.8183,1.4014
38677,1.2065,1.9999,0.9141,0.9415,1.0925
38697,-2.0000,-0.3232,0.5911,0.7923,0.8407
38717,1.9890,-2.0000,0.8481,0.8474,1.1923
38737,1.7241,1.9999,1.0940,0.9026,1.2430
38757,-2.0000,1.4670,0.6423,0.9529,0.9655
38777,-2.0000,-2.0000,0.9451,0.9617,1.0782
38797,1.9999,-1.0752,1.1045,0.8227,1.0712
38817,0.0298,1.9999,0.9607,0.7499,0.9840
38837,-2.0000,-2.0000,0.7966,0.9320,1.1141
38857,1.9999,-2.0000,0.9839,0.8888,1.3100
38877,0.6052,1.9999,0.9277,0.8754,0.9905
38897,-2.0000,-2.0000,0.6863,0.9241,1.1116
38917,1.9999,-2.0000,0.9858,0.8194,1.4107
38937,1.0415,1.9999,0.8826,0.9331,1.0585
38957,-2.0000,-1.0586,0.6040,0.8220,0.9237
38977,1.9999,-2.0000,0.8989,0.8179,1.2957
38997,1.4946,1.9999,0.9739,0.9204,1.1633
39017,-2.0000,0.3552,0.5894,0.8418,0.7974
39037,1.6379,-2.0000,0.8167,0.8095,1.0588
39057,1.8748,1.9999,1.1230,0.8781,1.2722
39077,-2.0000,1.7039,0.6670,0.9723,1.0638
39097,0.7065,-2.0000,0.8567,0.8275,0.8743
39117,1.9999,1.9999,1.2012,0.8401,1.3119
39137,-2.0000,1.9999,0.6875,0.9430,1.2929
39157,-0.2551,-2.0000,0.9216,0.8885,0.8958
39177,1.9999,1.5630,1.1704,0.7844,1.2123
39197,-1.7327,1.9999,0.7263,0.8102,1.3251
39217,-1.0791,-2.0000,1.0256,0.9310,1.0352
39237,1.9999,0.6414,1.1497,0.7534,1.0702
39257,-1.1567,1.9999,0.7185,0.6886,1.2049
39277,-1.8394,-2.0000,0.9902,0.9751,1.1430
39297,1.9999,-0.1213,1.1287,0.7974,1.0086
39317,-0.6299,1.9999,0.8091,0.6678,1.0894
39337,-2.0000,-2.0000,0.9392,0.9550,1.1694
39357,1.9999,-0.8284,1.1079,0.8207,1.0769
39377,-0.1494,1.9999,0.9126,0.7259,1.0192
39397,-2.0000,-2.0000,0.8145,0.9299,1.1439
39417,1.9999,-1.5889,1.0474,0.8517,1.2287
39437,0.2771,1.9999,0.9644,0.8224,0.9903
39457,-2.0000,-2.0000,0.7769,0.9161,1.1442
39477,1.9999,-2.0000,0.9817,0.8532,1.3809
39497,0.6057,1.9999,0.9368,0.8989,1.0112
39517,-2.0000,-2.0000,0.7212,0.9197,1.1394
39537,1.9999,-2.0000,0.9976,0.8073,1.4445
39557,0.8408,1.9999,0.9045,0.9295,1.0499
39577,-2.0000,-2.0000,0.6611,0.9396,1.1148
39597,1.9999,-2.0000,0.9744,0.7787,1.4628
39617,1.0688,1.9999,0.8850,0.9467,1.0882
39637,-2.0000,-1.5513,0.6311,0.8930,1.0048
39657,1.9999,-2.0000,0.9470,0.7779,1.4013
39677,1.2568,1.9999,0.9128,0.9312,1.1292
39697,-2.0000,-0.9182,0.6213,0.8539,0.8718
39717,1.9999,-2.0000,0.8828,0.8016,1.2909
39737,1.4507,1.9999,0.9580,0.8976,1.1803
39757,-2.0000,-0.3069,0.6011,0.8510,0.7887
39777,1.9999,-2.0000,0.8523,0.8385,1.1887
39797,1.6375,1.9999,1.0168,0.8616,1.2536
39817,-2.0000,0.2402,0.6062,0.8723,0.8076
39837,1.8096,-2.0000,0.8169,0.8425,1.0877
39857,1.7771,1.9999,1.0681,0.8331,1.3032
39877,-2.0000,0.7104,0.6230,0.8913,0.8962
39897,1.5217,-2.0000,0.7954,0.8441,0.9920
39917,1.8857,1.9999,1.1033,0.8178,1.3267
39937,-2.0000,1.1301,0.6450,0.9046,1.0152
39957,1.2703,-2.0000,0.7983,0.8637,0.9251
39977,1.9592,1.9999,1.1440,0.8089,1.3478
39997,-2.0000,1.4856,0.6650,0.9165,1.1430
40017,1.0188,-2.0000,0.8105,0.8866,0.8882
40037,1.9999,1.9999,1.1650,0.8040,1.3605
40057,-2.0000,1.6821,0.6755,0.9133,1.2389
40077,0.8828,-2.0000,0.8254,0.9111,0.8808
40097,1.9999,1.9999,1.1731,0.7977,1.3678
40117,-2.0000,1.8621,0.6797,0.9148,1.3174
40137,0.7732,-2.0000,0.8220,0.9319,0.8778
40157,1.9999,1.9999,1.1653,0.7939,1.3697
40177,-0.4661,1.9999,0.8660,0.5386,1.4582
40197,-2.0000,-2.0000,0.9492,1.1633,1.0005
40217,1.9999,-0.3521,1.1155,0.7195,1.0504
40237,-0.5225,1.9999,0.8372,0.6585,1.1192
40257,-2.0000,-2.0000,0.9519,1.0016,1.0989
40277,1.9999,-0.1809,1.1248,0.7615,1.0400
40297,-0.6431,1.9999,0.8079,0.7069,1.0540
40317,-2.0000,-2.0000,0.9597,0.9479,1.1651
40337,1.9999,0.0872,1.1472,0.7965,1.0329
40357,-0.8313,1.9999,0.7600,0.7178,1.0607
40377,-1.9497,-2.0000,0.9822,0.9236,1.1945
40397,1.9999,0.4714,1.1636,0.8357,1.0208
40417,-1.1069,1.9999,0.7229,0.7201,1.1152
40437,-1.5764,-2.0000,1.0188,0.8693,1.1681
40457,1.9999,0.8818,1.1680,0.8595,1.0362
40477,-1.3962,1.9999,0.7195,0.7344,1.1972
40497,-1.1792,-2.0000,1.0024,0.8472,1.1168
40517,1.9999,1.3926,1.1729,0.8980,1.0890
40537,-1.6980,1.9999,0.7268,0.7621,1.3032
40557,-0.7341,-2.0000,0.9453,0.8572,1.0507
40577,1.9999,1.9839,1.1958,0.9589,1.1987
40597,-2.0000,1.9999,0.7234,0.8059,1.4309
40617,-0.2036,-2.0000,0.8772,0.9050,0.9827
40637,1.9999,1.9999,1.1934,0.9097,1.2537
40657,-2.0000,1.9999,0.6833,0.8159,1.4447
40677,0.4141,-2.0000,0.8464,0.9500,0.9065
40697,1.9999,1.9999,1.1887,0.8494,1.3097
40717,-2.0000,1.6377,0.6772,0.8095,1.3468
40737,1.0369,-2.0000,0.8027,0.9743,0.8779
40757,1.9999,1.9999,1.1233,0.8031,1.3464
40777,-2.0000,0.8474,0.6516,0.8165,1.1208
40797,1.5481,-2.0000,0.7957,0.9553,0.9267
40817,1.8379,1.9999,1.0586,0.7679,1.3322
40837,-2.0000,-0.0686,0.6194,0.8699,0.8906
40857,1.9999,-2.0000,0.8611,0.9309,1.0749
40877,1.5840,1.9999,0.9856,0.7687,1.2938
40897,-2.0000,-1.0613,0.6143,0.9666,0.8018
40917,1.9999,-2.0000,0.9141,0.8302,1.2216
40937,1.2925,1.9999,0.9429,0.8214,1.1992
40957,-2.0000,-1.9856,0.6279,1.0619,0.9362
40977,1.9999,-2.0000,0.9653,0.7595,1.3953
40997,1.0176,1.9999,0.9385,0.8939,1.1283
41017,-2.0000,-2.0000,0.7029,1.0011,1.0492
41037,1.9999,-2.0000,0.9780,0.7519,1.4623
41057,0.7200,1.9999,0.9495,0.9172,1.0768
41077,-2.0000,-2.0000,0.7822,0.9570,1.1217
41097,1.9999,-1.7781,0.9951,0.7340,1.4384
41117,0.2947,1.9999,0.9519,0.9075,1.0121
41137,-2.0000,-2.0000,0.8262,0.9198,1.1610
41157,1.9999,-0.8152,1.0903,0.6966,1.2519
41177,-0.2681,1.9999,0.8713,0.8395,0.9497
41197,-2.0000,-2.0000,0.9329,0.9089,1.1682
41217,1.9999,0.2473,1.1501,0.7795,1.0737
41237,-0.9609,1.9999,0.7283,0.7867,0.9995
41257,-1.5745,-2.0000,1.0083,0.8435,1.1349
41277,1.9999,1.4319,1.1846,0.9298,1.0585
41297,-1.7725,1.9999,0.7603,0.8093,1.2538
41317,-0.4365,-2.0000,0.8931,0.8225,1.0091
41337,1.9999,1.9999,1.2063,0.9556,1.1910
41357,-2.0000,1.9999,0.6897,0.8284,1.3908
41377,0.7368,-2.0000,0.8147,0.9545,0.8890
41397,1.9999,1.9999,1.1379,0.8427,1.2979
41417,-2.0000,0.5845,0.6350,0.7780,1.0910
41437,1.7927,-2.0000,0.8059,0.9918,0.9471
41457,1.6841,1.9999,1.0059,0.7541,1.2866
41477,-2.0000,-1.0828,0.6086,0.9634,0.8100
41497,-0.3374,-2.0000,0.8735,0.6123,1.0235
41517,1.9999,1.9999,1.2136,1.0131,1.0864
41537,-2.0000,1.8347,0.6743,0.9024,1.1279
41557,1.0435,-2.0000,0.7869,0.8935,0.8602
41577,1.9875,1.9999,1.0840,0.8472,1.2573
41597,-2.0000,-0.0596,0.6321,0.8307,0.9040
41617,1.9999,-2.0000,0.8533,0.9466,1.0486
41637,1.4734,1.9999,0.9783,0.7648,1.2422
41657,-2.0000,-1.8984,0.6228,1.0811,0.8665
41677,1.9999,-2.0000,0.9529,0.7919,1.3170
41697,0.9783,1.9999,0.9370,0.8575,1.1176
41717,-2.0000,-2.0000,0.7432,1.0114,1.0262
41737,1.9999,-1.9824,0.9561,0.7607,1.4283
41757,0.3457,1.9999,0.9402,0.9032,1.0127
41777,-2.0000,-2.0000,0.8491,0.9340,1.1397
41797,1.9999,-0.2939,1.1316,0.6951,1.1797
41817,-0.6482,1.9999,0.7576,0.8327,0.9243
41837,-1.8560,-2.0000,0.9834,0.8839,1.1394
41857,1.9999,1.4280,1.1897,0.9403,1.0402
41877,-1.8132,1.9999,0.7441,0.8440,1.2032
41897,-0.2415,-2.0000,0.8618,0.8043,0.9717
41917,1.9999,1.9999,1.1973,0.9498,1.1773
41937,-2.0000,1.3950,0.6938,0.7641,1.2393
41957,1.3528,-2.0000,0.7837,0.9764,0.8853
41977,1.8550,1.9999,1.0327,0.7996,1.2685
41997,-2.0000,-0.9063,0.6284,0.9190,0.8490
42017,1.9999,-2.0000,0.9177,0.9017,1.1224
42037,1.2515,1.9999,0.9363,0.7871,1.1701
42057,-2.0000,-2.0000,0.6733,1.0616,0.9298
42077,1.9999,-2.0000,0.9609,0.7842,1.3591
42097,0.5825,1.9999,0.9651,0.8715,1.0497
42117,-2.0000,-2.0000,0.8191,0.9670,1.0911
42137,1.9999,-0.5532,1.1201,0.6686,1.2077
42157,-0.4885,1.9999,0.8035,0.8308,0.9356
42177,-2.0000,-2.0000,0.9690,0.9225,1.1441
42197,1.9999,1.4148,1.1868,0.9391,1.0398
42217,-1.8096,1.9999,0.7563,0.8482,1.1966
42237,-0.1846,-2.0000,0.8374,0.8015,0.9612
42257,1.9999,1.9999,1.1819,0.9466,1.1725
42277,-2.0000,0.9229,0.6682,0.7327,1.1398
42297,1.6680,-2.0000,0.8057,0.9914,0.9195
42317,1.7156,1.9999,0.9949,0.7804,1.2452
42337,-2.0000,-1.8125,0.6348,1.0681,0.8542
42357,1.9999,-2.0000,0.9556,0.8322,1.2525
42377,0.9653,1.9999,0.9512,0.8333,1.1085
42397,-2.0000,-2.0000,0.7812,1.0130,1.0242
42417,1.9999,-1.2407,1.0256,0.6772,1.2812
42437,-0.0818,1.9999,0.8699,0.8441,0.9567
42457,-2.0000,-2.0000,0.9275,0.9350,1.1221
42477,1.9999,1.1145,1.1936,0.8732,1.0499
42497,-1.6177,1.9999,0.7593,0.8532,1.1095
42517,-0.3481,-2.0000,0.8430,0.7705,0.9623
42537,1.9999,1.9999,1.1921,0.9549,1.1605
42557,-2.0000,0.8855,0.6504,0.7400,1.1078
42577,1.7268,-2.0000,0.8154,0.9888,0.9337
42597,1.6721,1.9999,0.9875,0.7767,1.2385
42617,-2.0000,-2.0000,0.6240,1.1024,0.8688
42637,1.9999,-2.0000,0.9534,0.8174,1.2814
42657,0.8923,1.9999,0.9739,0.8452,1.0982
42677,-2.0000,-2.0000,0.7937,1.0018,1.0448
42697,1.9999,-0.8621,1.0811,0.6555,1.2390
42717,-0.2969,1.9999,0.8345,0.8317,0.9465
42737,-2.0000,-2.0000,0.9536,0.9330,1.1263
42757,1.9999,1.6599,1.1987,0.9773,1.0568
42777,-1.9565,1.9999,0.7214,0.8812,1.2144
42797,0.1953,-2.0000,0.8110,0.8292,0.9147
42817,1.9999,0.3635,1.1531,0.6805,1.0693
42837,-1.1082,1.9999,0.7402,0.7572,1.0933
42857,-1.0127,-2.0000,0.9358,0.8424,0.9752
42877,1.9999,1.9999,1.2249,0.9546,1.1787
42897,-2.0000,1.5383,0.7087,0.7862,1.2613
42917,1.3835,-2.0000,0.7703,0.9866,0.8915
42937,1.8147,1.9999,0.9968,0.7845,1.2674
42957,-2.0000,-1.8811,0.6362,1.0914,0.8533
42977,1.9999,-2.0000,0.9448,0.8444,1.2304
42997,0.8950,1.9999,0.9900,0.8234,1.1009
43017,-2.0000,-2.0000,0.8191,1.0087,1.0370
43037,1.9999,-0.5400,1.1104,0.6525,1.1902
43057,-0.5557,1.9999,0.7637,0.8235,0.9363
43077,-1.6367,-2.0000,0.9866,0.8614,1.0853
43097,1.9999,1.9999,1.2275,1.0247,1.1073
43117,-2.0000,1.9999,0.7039,0.8745,1.2738
43137,1.1086,-2.0000,0.7510,0.9510,0.8736
43157,1.8999,1.9999,1.0166,0.8208,1.2471
43177,-2.0000,-1.7837,0.6401,1.0618,0.8575
43197,1.9999,-2.0000,0.9368,0.8574,1.2093
43217,0.9050,1.9999,0.9700,0.8183,1.0905
43237,-2.0000,-2.0000,0.8208,1.0085,1.0302
43257,1.9999,-0.2710,1.1328,0.6603,1.1544
43277,-0.7271,1.9999,0.7327,0.8206,0.9386
43297,-1.3762,-2.0000,0.9661,0.8202,1.0464
43317,1.9999,1.9999,1.2363,1.0079,1.1200
43337,-2.0000,1.5269,0.7041,0.8025,1.1931
43357,1.4685,-2.0000,0.7708,0.9720,0.9040
43377,1.7512,1.9999,0.9771,0.7889,1.2353
43397,-2.0000,-2.0000,0.6309,1.1025,0.8667
43417,1.9999,-2.0000,0.9561,0.8308,1.2608
43437,0.6533,1.9999,0.9368,0.8318,1.0438
43457,-2.0000,-2.0000,0.8547,0.9841,1.0594
43477,1.9999,0.5718,1.1750,0.7510,1.0871
43497,-1.3018,1.9999,0.7187,0.8510,1.0003
43517,-0.5364,-2.0000,0.8489,0.7472,0.9487
43537,1.9999,1.9999,1.1653,0.9587,1.1370
43557,-2.0000,0.0354,0.6296,0.7499,0.9550
43577,1.9999,-2.0000,0.8718,0.9705,1.0338
43597,1.3413,1.9999,0.9543,0.7729,1.1692
43617,-2.0000,-2.0000,0.7461,1.0654,0.9357
43637,1.9999,-1.3552,0.9929,0.7026,1.2279
43657,-0.1069,1.9999,0.8474,0.8221,0.9471
43677,-2.0000,-2.0000,0.9478,0.9472,1.0972
43697,1.9999,1.9999,1.2363,1.0401,1.0848
43717,-2.0000,1.9999,0.7261,0.8816,1.2524
43737,1.0735,-2.0000,0.7546,0.9375,0.8739
43757,1.8828,1.9999,1.0254,0.8248,1.2354
43777,-2.0000,-2.0000,0.6445,1.1000,0.8772
43797,1.9999,-2.0000,0.9507,0.8449,1.2426
43817,0.7131,1.9999,0.9561,0.8273,1.0538
43837,-2.0000,-2.0000,0.8481,0.9869,1.0586
43857,1.9999,0.6584,1.1748,0.7614,1.0843
43877,-1.3652,1.9999,0.7319,0.8550,1.0184
43897,-0.3501,-2.0000,0.8142,0.7456,0.9298
43917,1.9999,1.9999,1.1494,0.9461,1.1457
43937,-2.0000,-0.5164,0.6155,0.8008,0.9034
43957,1.9999,-2.0000,0.9126,0.9332,1.0904
43977,1.2029,1.9999,0.9810,0.7891,1.1411
43997,-2.0000,-2.0000,0.8105,1.0426,0.9859
44017,1.9999,-0.5547,1.0974,0.6477,1.1641
44037,-0.6294,1.9999,0.7468,0.8158,0.9390
44057,-1.3469,-2.0000,0.9543,0.8187,1.0349
44077,1.9999,1.9999,1.2253,1.0020,1.1214
44097,-2.0000,0.7288,0.6750,0.7360,1.0547
44117,1.9968,-2.0000,0.8301,1.0099,1.0009
44137,1.4685,1.9999,0.9771,0.7629,1.2151
44157,-2.0000,-2.0000,0.7534,1.0841,0.9281
44177,1.9999,-1.3745,0.9702,0.7076,1.2182
44197,-0.1396,1.9999,0.8442,0.8164,0.9503
44217,-1.9895,-2.0000,0.9656,0.9486,1.0954
44237,1.9999,1.9999,1.2346,1.0365,1.0909
44257,-0.1252,1.9999,0.8474,0.5440,1.2501
44277,-1.9675,-2.0000,0.9680,1.0574,1.0618
44297,1.9999,1.9999,1.2595,0.9634,1.2246
44317,-2.0000,1.4902,0.7129,0.7470,1.3291
44337,1.6094,-2.0000,0.7720,1.0451,0.9186
44357,1.6169,1.9999,0.9971,0.7384,1.2653
44377,-2.0000,-2.0000,0.6926,1.1093,0.8908
44397,1.9999,-1.7319,0.9314,0.7975,1.1965
44417,0.0764,1.9999,0.8818,0.8044,0.9630
44437,-2.0000,-2.0000,0.9417,0.9578,1.0837
44457,1.9999,1.9999,1.2422,1.0331,1.0929
44477,-2.0000,1.8237,0.7424,0.8539,1.2238
44497,1.4333,-2.0000,0.7554,0.9776,0.8977
44517,1.6980,1.9999,0.9941,0.7757,1.2334
44537,-2.0000,-2.0000,0.6855,1.0997,0.8854
44557,1.9999,-1.8433,0.9343,0.8082,1.2271
44577,0.1213,1.9999,0.8999,0.8210,0.9636
44597,-2.0000,-2.0000,0.9414,0.9532,1.0936
44617,1.9999,1.9999,1.2498,1.0374,1.0928
44637,-2.0000,1.7505,0.7332,0.8479,1.1996
44657,1.5022,-2.0000,0.7627,0.9788,0.9073
44677,1.6675,1.9999,0.9932,0.7724,1.2304
44697,-2.0000,-2.0000,0.6831,1.0979,0.8873
44717,1.9999,-1.6777,0.9336,0.7758,1.2053
44737,0.0149,1.9999,0.8818,0.8141,0.9507
44757,-2.0000,-2.0000,0.9612,0.9526,1.0920
44777,1.9999,1.9999,1.2651,1.0376,1.0966
44797,-2.0000,1.3335,0.7253,0.7825,1.1421
44817,1.7397,-2.0000,0.7869,0.9954,0.9461
44837,1.5549,1.9999,0.9951,0.7644,1.2188
44857,-2.0000,-2.0000,0.7478,1.0878,0.9201
44877,1.9999,-1.1057,0.9917,0.6890,1.1604
44897,-0.3708,1.9999,0.7878,0.8027,0.9309
44917,-1.4778,-2.0000,0.9639,0.8454,1.0357
44937,1.9999,1.9999,1.2163,1.0049,1.1128
44957,-2.0000,0.1709,0.6538,0.7303,0.9794
44977,1.9999,-2.0000,0.8652,0.9698,1.0495
44997,1.2654,1.9999,0.9536,0.7735,1.1525
45017,-2.0000,-2.0000,0.8201,1.0531,0.9716
45037,1.9999,0.1572,1.1257,0.6688,1.0975
45057,-1.1292,1.9999,0.7290,0.8289,0.9909
45077,-0.4075,-2.0000,0.8093,0.7441,0.9175
45097,1.9999,1.9999,1.1035,0.9380,1.1408
45117,-2.0000,-1.5339,0.6663,0.9556,0.9052
45137,1.9999,-2.0000,0.9233,0.8650,1.2179
45157,0.8330,1.9999,0.9580,0.8273,1.0606
45177,-2.0000,-2.0000,0.8647,0.9902,1.0601
45197,1.9999,1.5684,1.2349,0.9219,1.0949
45217,-2.0000,1.9999,0.7480,0.9342,1.1707
45237,0.8965,-2.0000,0.7290,0.8767,0.8755
45257,1.8896,1.9999,1.0339,0.8428,1.2129
45277,-2.0000,-2.0000,0.6592,1.0896,0.8888
45297,1.9999,-1.7566,0.9275,0.7935,1.2115
45317,0.0415,1.9999,0.8657,0.8203,0.9394
45337,-1.9775,-2.0000,0.9380,0.9428,1.0866
45357,1.9999,1.9999,1.2229,1.0388,1.0757
45377,-2.0000,0.4478,0.6726,0.7160,1.0048
45397,1.9999,-2.0000,0.8647,0.9863,1.0301
45417,1.3555,1.9999,0.9897,0.7783,1.1724
45437,-2.0000,-2.0000,0.8369,1.0592,0.9770
45457,1.9999,0.3618,1.1316,0.6829,1.0970
45477,-1.2407,1.9999,0.7288,0.8334,1.0211
45497,-0.1277,-2.0000,0.7739,0.7497,0.8962
45517,1.9999,1.9999,1.0576,0.9167,1.1561
45537,-2.0000,-2.0000,0.6721,1.0604,0.9207
45557,1.9999,-2.0000,0.9314,0.8351,1.2752
45577,0.5186,1.9999,0.9187,0.8443,1.0044
45597,-2.0000,-2.0000,0.8999,0.9603,1.0942
45617,1.9999,1.9999,1.2522,1.0359,1.0975
45637,-2.0000,1.3469,0.7424,0.8057,1.1127
45657,1.7769,-2.0000,0.7993,0.9873,0.9650
45677,1.5208,1.9999,0.9922,0.7590,1.2235
45697,-2.0000,-2.0000,0.8005,1.0882,0.9366
45717,1.9999,-0.1785,1.1086,0.6423,1.1089
45737,-0.9375,1.9999,0.7244,0.8071,0.9807
45757,-0.5300,-2.0000,0.7935,0.7493,0.9146
45777,1.9999,1.9999,1.0940,0.9393,1.1340
45797,-2.0000,-1.8870,0.6680,1.0225,0.9287
45817,1.9999,-2.0000,0.9216,0.8426,1.2656
45837,0.6797,1.9999,0.9202,0.8453,1.0229
45857,-2.0000,-2.0000,0.8809,0.9695,1.0826
45877,1.9999,-1.7515,0.9304,0.7598,1.3614
45897,0.0049,1.9999,0.8452,0.8878,0.9340
45917,-1.8147,-2.0000,0.9463,0.8638,1.1517
45937,1.9999,1.9999,1.2317,1.0603,1.0771
45957,-2.0000,-0.1699,0.6414,0.7249,0.9582
45977,1.9999,-2.0000,0.9023,0.9355,1.1157
45997,1.1714,1.9999,0.9949,0.8060,1.1242
46017,-2.0000,-2.0000,0.8408,1.0245,1.0237
46037,1.9999,1.2952,1.2136,0.8432,1.1043
46057,-1.8494,1.9999,0.7737,0.9088,1.1542
46077,0.8206,-2.0000,0.7151,0.8565,0.8810
46097,1.9180,1.9999,1.0093,0.8465,1.2167
46117,-2.0000,-2.0000,0.7107,1.0918,0.8981
46137,1.9999,-1.2126,0.9697,0.7082,1.1478
46157,-0.3386,1.9999,0.7754,0.8024,0.9136
46177,-1.2778,-2.0000,0.8787,0.8080,0.9912
46197,1.9999,1.9999,1.1616,0.9933,1.0910
46217,-2.0000,-1.1431,0.6357,0.8568,0.9130
46237,1.9999,-2.0000,0.9163,0.8838,1.1886
46257,0.9031,1.9999,0.9622,0.8239,1.0619
46277,-2.0000,-2.0000,0.8689,0.9935,1.0547
46297,1.9999,1.9999,1.2549,1.0127,1.1216
46317,-2.0000,1.7769,0.7407,0.8721,1.1907
46337,1.5789,-2.0000,0.7742,0.9845,0.9265
46357,1.6179,1.9999,1.0129,0.7520,1.2547
46377,-2.0000,-2.0000,0.7881,1.1041,0.9188
46397,1.9999,-0.0081,1.1140,0.6452,1.0917
46417,-1.0488,1.9999,0.7258,0.8039,1.0071
46437,-0.2483,-2.0000,0.7488,0.7512,0.8832
46457,1.9999,1.9999,1.0581,0.9168,1.1492
46477,-2.0000,-2.0000,0.6758,1.0605,0.9151
46497,1.9999,-2.0000,0.9199,0.8333,1.2727
46517,0.2534,1.9999,0.8706,0.8470,0.9522
46537,-2.0000,-2.0000,0.9155,0.9423,1.1019
46557,1.9999,1.9999,1.2336,1.0466,1.0726
46577,-2.0000,-0.2302,0.6519,0.7306,0.9504
46597,1.9999,-2.0000,0.9124,0.9361,1.1122
46617,1.0974,1.9999,0.9922,0.7975,1.1129
46637,-2.0000,-2.0000,0.8689,1.0206,1.0309
46657,1.9999,1.9673,1.2617,0.9848,1.1487
46677,-2.0000,1.9999,0.7527,0.9063,1.2558
46697,1.4790,-2.0000,0.7661,0.9903,0.9208
46717,1.6516,1.9999,1.0125,0.7445,1.2751
46737,-2.0000,-2.0000,0.8206,1.1122,0.9240
46757,1.9999,0.2639,1.1382,0.6582,1.0938
46777,-1.2651,1.9999,0.7568,0.8186,1.0610
46797,0.1621,-2.0000,0.7297,0.7706,0.8775
46817,1.9999,1.9999,1.0173,0.8892,1.1851
46837,-2.0000,-2.0000,0.6934,1.0790,0.9003
46857,1.9999,-1.1987,0.9531,0.7058,1.1440
46877,-0.3835,1.9999,0.7646,0.8110,0.8949
46897,-1.0298,-2.0000,0.8386,0.7622,0.9665
46917,1.9999,1.9999,1.1079,0.9823,1.0820
46937,-2.0000,-2.0000,0.6765,1.0168,0.9717
46957,1.9999,-2.0000,0.9048,0.8291,1.3048
46977,0.2507,1.9999,0.8635,0.8660,0.9404
46997,-1.9326,-2.0000,0.9307,0.9120,1.1220
47017,1.9999,1.9999,1.1851,1.0520,1.0583
47037,-2.0000,-1.1484,0.6289,0.8219,0.9603
47057,1.9999,-2.0000,0.9060,0.8806,1.2176
47077,0.7500,1.9999,0.9231,0.8353,1.0169
47097,-2.0000,-2.0000,0.8855,0.9691,1.0807
47117,1.9999,1.9999,1.2688,1.0295,1.1079
47137,-2.0000,0.0232,0.6765,0.7334,0.9703
47157,1.9999,-2.0000,0.8875,0.9480,1.0946
47177,1.0911,1.9999,0.9785,0.7770,1.1289
47197,-2.0000,-2.0000,0.8591,1.0321,1.0140
47217,1.9999,1.9999,1.2676,0.9838,1.1590
47237,-2.0000,1.2942,0.7351,0.8030,1.1403
47257,1.9319,-2.0000,0.8167,1.0232,0.9936
47277,1.4131,1.9999,0.9685,0.7222,1.2468
47297,-2.0000,-2.0000,0.8416,1.0985,0.9406
47317,1.9999,1.5728,1.2188,0.8459,1.1564
47337,-2.0000,1.9999,0.7793,0.9172,1.2472
47357,1.3525,-2.0000,0.7300,0.9672,0.9026
47377,1.6880,1.9999,1.0173,0.7517,1.2716
47397,-2.0000,-2.0000,0.8333,1.1135,0.9203
47417,1.9999,0.7793,1.1748,0.7077,1.1047
47437,-1.5747,1.9999,0.7632,0.8500,1.1345
47457,0.7412,-2.0000,0.7039,0.8422,0.8713
47477,1.9114,1.9999,1.0300,0.8334,1.2349
47497,-2.0000,-2.0000,0.7847,1.0998,0.9111
47517,1.9999,-0.0054,1.0906,0.6462,1.0786
47537,-1.1372,1.9999,0.7507,0.8200,1.0013
47557,0.0828,-2.0000,0.7378,0.7450,0.8787
47577,1.9999,1.9999,1.0347,0.9014,1.1686
47597,-2.0000,-2.0000,0.7178,1.0713,0.9125
47617,1.9999,-0.7896,1.0000,0.6662,1.1110
47637,-0.6838,1.9999,0.7454,0.8167,0.9026
47657,-0.5229,-2.0000,0.7737,0.7129,0.9197
47677,1.9999,1.9999,1.0562,0.9523,1.1002
47697,-2.0000,-2.0000,0.6794,1.0373,0.9354
47717,1.9999,-1.4268,0.9336,0.7348,1.1937
47737,-0.2986,1.9999,0.7649,0.8389,0.8703
47757,-1.0715,-2.0000,0.8418,0.7447,0.9965
47777,1.9999,1.9999,1.1162,0.9995,1.0666
47797,-1.9011,1.9999,0.7974,0.8912,1.1909
47817,1.1848,-2.0000,0.7178,0.9332,0.8581
47837,1.7295,1.9999,1.0359,0.7741,1.2396
47857,-2.0000,-2.0000,0.8242,1.1056,0.9094
47877,1.9999,0.8711,1.1699,0.7253,1.0906
47897,-1.6670,1.9999,0.7920,0.8637,1.1463
47917,0.8821,-2.0000,0.6870,0.8639,0.8679
47937,1.8279,1.9999,1.0286,0.8122,1.2279
47957,-2.0000,-2.0000,0.8052,1.0982,0.9142
47977,1.9999,0.5806,1.1389,0.6917,1.0765
47997,-1.4810,1.9999,0.8069,0.8452,1.0943
48017,0.7402,-2.0000,0.6924,0.8226,0.8761
48037,1.8789,1.9999,1.0286,0.8345,1.2202
48057,-2.0000,-2.0000,0.7954,1.0937,0.9170
48077,1.9999,0.4355,1.1348,0.6770,1.0780
48097,-1.4275,1.9999,0.7727,0.8492,1.0588
48117,0.6118,-2.0000,0.6880,0.7975,0.8690
48137,1.9241,1.9999,1.0454,0.8550,1.2088
48157,-2.0000,-2.0000,0.7935,1.0887,0.9198
48177,1.9999,0.3684,1.1272,0.6728,1.0761
48197,-1.4260,1.9999,0.7991,0.8548,1.0522
48217,0.6399,-2.0000,0.6960,0.7935,0.8798
48237,1.8884,1.9999,1.0361,0.8500,1.2032
48257,-2.0000,-2.0000,0.8118,1.0853,0.9287
48277,1.9999,0.5732,1.1477,0.6954,1.0813
48297,-1.4673,1.9999,0.8044,0.8506,1.0817
48317,0.7737,-2.0000,0.6990,0.8179,0.8856
48337,1.8550,1.9999,1.0464,0.8319,1.2226
48357,-2.0000,-2.0000,0.8240,1.0917,0.9324
48377,1.9999,0.9287,1.1824,0.7386,1.1017
48397,-1.7002,1.9999,0.7957,0.8791,1.1416
48417,1.0723,-2.0000,0.6941,0.8810,0.8891
48437,1.7695,1.9999,1.0305,0.7948,1.2399
48457,-2.0000,-2.0000,0.8418,1.1007,0.9283
48477,1.9999,1.4458,1.2200,0.8208,1.1423
48497,-2.0000,1.9999,0.8215,0.9185,1.2440
48517,1.4934,-2.0000,0.7358,0.9853,0.9217
48537,1.5916,1.9999,1.0229,0.7320,1.2720
48557,-2.0000,-2.0000,0.8464,1.1113,0.9305
48577,1.9999,1.9999,1.2590,0.9259,1.2170
48597,-2.0000,1.6313,0.7698,0.8345,1.2602
48617,1.8806,-2.0000,0.8066,1.0570,0.9802
48637,1.3958,1.9999,1.0215,0.6812,1.2989
48657,-2.0000,-2.0000,0.8376,1.1188,0.9333
48677,1.9999,1.9999,1.3062,0.9224,1.2394
48697,-2.0000,0.6260,0.7329,0.7628,1.0938
48717,1.9999,-2.0000,0.8655,1.0089,1.0425
48737,1.1445,1.9999,0.9805,0.7057,1.2166
48757,-2.0000,-2.0000,0.8701,1.0785,0.9743
48777,1.9999,1.9999,1.2747,0.9496,1.2032
48797,-2.0000,-0.2427,0.6746,0.7800,0.9736
48817,1.9999,-2.0000,0.8965,0.9446,1.1057
48837,0.9353,1.9999,0.9131,0.7536,1.1150
48857,-2.0000,-2.0000,0.8809,1.0320,1.0089
48877,1.9999,1.9999,1.2471,0.9825,1.1518
48897,-2.0000,-1.1912,0.6360,0.8734,0.9465
48917,1.9999,-2.0000,0.8975,0.8826,1.2046
48937,0.5649,1.9999,0.8796,0.8099,1.0065
48957,-2.0000,-2.0000,0.8982,0.9716,1.0716
48977,1.9999,1.9999,1.1636,1.0233,1.0801
48997,-2.0000,-2.0000,0.6648,0.9889,1.0332
49017,1.9999,-2.0000,0.8950,0.8391,1.3209
49037,0.0342,1.9999,0.7856,0.8779,0.8991
49057,-1.2163,-2.0000,0.8259,0.7404,1.0654
49077,1.9999,1.9999,1.0698,1.0241,1.0445
49097,-2.0000,-2.0000,0.7004,0.9892,1.0137
49117,1.9999,-0.8394,0.9717,0.6886,1.1434
49137,-0.7722,1.9999,0.7363,0.8563,0.8636
49157,-0.0461,-2.0000,0.7202,0.6575,0.9325
49177,1.9999,1.9999,1.0432,0.9510,1.1067
49197,-2.0000,-2.0000,0.7993,1.0402,0.9614
49217,1.9999,0.6870,1.1450,0.7338,1.0608
49237,-1.6387,1.9999,0.8237,0.8923,1.0672
49257,1.1306,-2.0000,0.6951,0.8570,0.9010
49277,1.7214,1.9999,1.0413,0.8042,1.2139
49297,-2.0000,-2.0000,0.8533,1.0884,0.9413
49317,1.9999,1.9999,1.2864,0.9443,1.1983
49337,-2.0000,1.1172,0.7649,0.7874,1.1440
49357,1.9999,-2.0000,0.8479,1.0333,1.0199
49377,1.2192,1.9999,0.9580,0.6928,1.2367
49397,-2.0000,-2.0000,0.8518,1.0931,0.9489
49417,1.9999,1.9999,1.2715,0.9395,1.2065
49437,-2.0000,-0.9458,0.6526,0.8627,0.9373
49457,1.9999,-2.0000,0.8801,0.9035,1.1588
49477,0.5627,1.9999,0.8789,0.7795,1.0241
49497,-1.9731,-2.0000,0.8911,0.9827,1.0425
49517,1.9999,1.9999,1.1460,1.0084,1.0873
49537,-2.0000,-2.0000,0.6880,0.9979,1.0227
49557,1.9999,-1.6436,0.9121,0.7853,1.2462
49577,-0.2732,1.9999,0.7461,0.8583,0.8704
49597,-0.7236,-2.0000,0.7754,0.6742,1.0036
49617,1.9999,1.9999,1.0364,0.9934,1.0605
49637,-2.0000,-2.0000,0.7429,1.0101,0.9859
49657,1.9999,-0.0820,1.0679,0.6793,1.0713
49677,-1.2434,1.9999,0.7637,0.8675,0.9412
49697,0.6372,-2.0000,0.6887,0.7402,0.8976
49717,1.8623,1.9999,1.0437,0.8750,1.1596
49737,-2.0000,-2.0000,0.8516,1.0665,0.9511
49757,1.9999,1.6448,1.2285,0.8835,1.1297
49777,-2.0000,1.9077,0.7964,0.9030,1.2136
49797,1.8379,-2.0000,0.7773,1.0352,0.9617
49817,1.3701,1.9999,1.0061,0.6917,1.2640
49837,-2.0000,-2.0000,0.8533,1.1082,0.9335
49857,1.9999,1.9999,1.3081,0.9300,1.2268
49877,-2.0000,-0.4702,0.6619,0.8093,0.9607
49897,1.9999,-2.0000,0.8813,0.9365,1.1102
49917,0.6907,1.9999,0.8882,0.7480,1.0663
49937,-2.0000,-2.0000,0.8801,1.0138,1.0150
49957,1.9999,1.9999,1.1570,0.9921,1.1072
49977,-2.0000,-2.0000,0.6711,1.0096,1.0074
49997,1.9999,-1.7522,0.8950,0.8028,1.2521
50017,-0.2539,1.9999,0.7717,0.8609,0.8753
50037,-0.7278,-2.0000,0.7703,0.6735,1.0073
50057,1.9999,1.9999,1.0352,0.9937,1.0619
50077,-2.0000,-2.0000,0.7676,1.0099,0.9932
50097,1.9999,0.1440,1.0864,0.6935,1.0623
50117,-1.3838,1.9999,0.7788,0.8777,0.9741
50137,0.8740,-2.0000,0.6689,0.7814,0.8961
50157,1.7749,1.9999,1.0493,0.8448,1.1714
50177,-2.0000,-2.0000,0.8699,1.0718,0.9524
50197,1.9999,1.9999,1.2546,0.9555,1.1733
50217,-2.0000,1.2673,0.7610,0.8021,1.1481
50237,1.9999,-2.0000,0.8230,1.0393,1.0027
50257,1.2083,1.9999,0.9778,0.6880,1.2346
50277,-2.0000,-2.0000,0.8655,1.0940,0.9482
50297,1.9999,1.9999,1.2891,0.9393,1.2121
50317,-2.0000,-1.0735,0.6379,0.8823,0.9379
50337,1.9999,-2.0000,0.8967,0.8970,1.1746
50357,0.4348,1.9999,0.8525,0.7859,0.9997
50377,-1.7073,-2.0000,0.8665,0.9129,1.0270
50397,1.9999,1.9999,1.0945,0.9997,1.0797
50417,-2.0000,-2.0000,0.6692,1.0041,0.9989
50437,1.9999,-1.1375,0.9353,0.7187,1.1592
50457,-0.6714,1.9999,0.7246,0.8543,0.8546
50477,-0.1165,-2.0000,0.7244,0.6506,0.9408
50497,1.9999,1.9999,1.0159,0.9564,1.0930
50517,-2.0000,-2.0000,0.8203,1.0362,0.9657
50537,1.9999,0.9226,1.1609,0.7711,1.0607
50557,-1.8577,1.9999,0.8008,0.9276,1.0989
50577,1.4092,-2.0000,0.7275,0.9190,0.9107
50597,1.5735,1.9999,1.0369,0.7665,1.2145
50617,-2.0000,-2.0000,0.6743,1.0908,0.8903
50637,1.9999,-1.7136,0.8945,0.7737,1.2161
50657,-0.3547,1.9999,0.7388,0.8520,0.8620
50677,-0.5618,-2.0000,0.7664,0.6770,0.9599
50697,1.9999,1.9999,1.0508,0.9686,1.0896
50717,-2.0000,-2.0000,0.7698,1.0291,0.9683
50737,1.9999,0.6875,1.1333,0.7405,1.0506
50757,-1.7783,1.9999,0.8215,0.9247,1.0624
50777,1.3740,-2.0000,0.7134,0.8958,0.9149
50797,1.5278,1.9999,0.9954,0.7689,1.1848
50817,-2.0000,-2.0000,0.8501,1.0803,0.9360
50837,1.9999,1.9999,1.2881,0.9500,1.1853
50857,-2.0000,0.0024,0.6997,0.7639,0.9843
50877,1.9999,-2.0000,0.8625,0.9609,1.0710
50897,0.7092,1.9999,0.9023,0.7268,1.0796
50917,-2.0000,-2.0000,0.9092,1.0245,1.0075
50937,1.9999,1.9999,1.1548,0.9839,1.1188
50957,-2.0000,-2.0000,0.7048,1.0142,1.0126
50977,1.9999,-1.4956,0.9104,0.7686,1.2079
50997,-0.5791,1.9999,0.7397,0.8633,0.8644
51017,-0.2305,-2.0000,0.7488,0.6405,0.9746
51037,1.9999,1.9999,1.0454,0.9686,1.0971
51057,-2.0000,-2.0000,0.8296,1.0283,0.9908
51077,1.9999,1.0930,1.1702,0.8040,1.0714
51097,-2.0000,1.9999,0.7773,0.9519,1.1271
51117,1.6470,-2.0000,0.7415,0.9737,0.9252
51137,1.3826,1.9999,1.0061,0.7279,1.2000
51157,-2.0000,-2.0000,0.8672,1.0846,0.9426
51177,1.9999,1.9999,1.2842,0.9458,1.1956
51197,-2.0000,-0.6067,0.6606,0.8138,0.9469
51217,1.9999,-2.0000,0.8801,0.9270,1.1202
51237,0.4172,1.9999,0.8716,0.7571,1.0104
51257,-1.5598,-2.0000,0.8943,0.8951,1.0075
51277,1.9999,1.9999,1.0728,0.9813,1.0994
51297,-2.0000,-2.0000,0.7075,1.0155,0.9949
51317,1.9999,-0.4055,1.0200,0.6811,1.0825
51337,-1.2417,1.9999,0.7439,0.8756,0.9272
51357,0.8103,-2.0000,0.6956,0.7480,0.9156
51377,1.6890,1.9999,1.0215,0.8455,1.1347
51397,-2.0000,-2.0000,0.8618,1.0571,0.9576
51417,1.9999,1.9999,1.2930,0.9677,1.1654
51437,-2.0000,0.3733,0.7295,0.7519,1.0163
51457,1.9999,-2.0000,0.8523,0.9782,1.0526
51477,0.7290,1.9999,0.8940,0.7117,1.0922
51497,-2.0000,-2.0000,0.9084,1.0329,0.9965
51517,1.9999,1.9999,1.1311,0.9771,1.1185
51537,-2.0000,-2.0000,0.6931,1.0185,0.9997
51557,1.9999,-0.7742,0.9670,0.7013,1.1011
51577,-1.0972,1.9999,0.7236,0.8693,0.8963
51597,0.7061,-2.0000,0.6755,0.7187,0.9184
51617,1.7068,1.9999,1.0261,0.8608,1.1185
51637,-2.0000,-2.0000,0.8682,1.0508,0.9620
51657,1.9999,1.9999,1.2900,0.9725,1.1577
51677,-2.0000,0.1975,0.7297,0.7524,0.9943
51697,1.9999,-2.0000,0.8604,0.9650,1.0683
51717,0.5967,1.9999,0.8989,0.7207,1.0658
51737,-1.7678,-2.0000,0.8926,0.9683,0.9920
51757,1.9999,1.9999,1.0959,0.9726,1.1143
51777,-2.0000,-2.0000,0.6970,1.0213,0.9906
51797,1.9999,-0.1279,1.0452,0.6887,1.0548
51817,-1.4844,1.9999,0.7971,0.8923,0.9863
51837,1.1797,-2.0000,0.6804,0.8259,0.9197
51857,1.5151,1.9999,1.0100,0.7968,1.1425
51877,-2.0000,-2.0000,0.8679,1.0613,0.9547
51897,1.9999,1.9999,1.2939,0.9639,1.1714
51917,-2.0000,-1.3162,0.6401,0.9064,0.9414
51937,1.9999,-2.0000,0.8955,0.8780,1.2092
51957,-0.1387,1.9999,0.7812,0.8273,0.9030
51977,-0.6072,-2.0000,0.7815,0.6840,0.9864
51997,1.9999,1.9999,1.0381,0.9688,1.1019
52017,-2.0000,-2.0000,0.8269,1.0276,0.9955
52037,1.9999,1.7603,1.2119,0.9345,1.1074
52057,-2.0000,1.3098,0.7529,0.8128,1.0962
52077,1.9999,-2.0000,0.8220,1.0243,0.9979
52097,0.8984,1.9999,0.9077,0.6806,1.1426
52117,-2.0000,-2.0000,0.8936,1.0622,0.9594
52137,1.9999,1.9999,1.1597,0.9572,1.1445
52157,-2.0000,-2.0000,0.6909,1.0330,0.9851
52177,1.9999,-0.2368,1.0298,0.6866,1.0555
52197,-1.4866,1.9999,0.8052,0.8924,0.9894
52217,1.2966,-2.0000,0.6726,0.8439,0.9294
52237,1.4624,1.9999,0.9890,0.7848,1.1413
52257,-2.0000,-2.0000,0.8821,1.0627,0.9539
52277,1.9999,1.9999,1.2576,0.9617,1.1634
52297,-2.0000,-2.0000,0.6902,1.0335,0.9991
52317,1.9999,-1.6348,0.8936,0.7799,1.2332
52337,-0.7017,1.9999,0.7302,0.8876,0.8567
52357,0.3479,-2.0000,0.6780,0.6332,0.9760
52377,1.7720,1.9999,1.0481,0.9050,1.1078
52397,-2.0000,-2.0000,0.8611,1.0366,0.9871
52417,1.9999,1.9999,1.3000,0.9847,1.1517
52437,-2.0000,-0.9502,0.6599,0.8422,0.9354
52457,1.9999,-2.0000,0.8826,0.8874,1.1868
52477,-0.1013,1.9999,0.7815,0.8134,0.9101
52497,-0.4731,-2.0000,0.7554,0.6798,0.9696
52517,1.9999,1.9999,1.0405,0.9549,1.1203
52537,-2.0000,-2.0000,0.8569,1.0383,0.9917
52557,1.9999,1.9999,1.2749,0.9813,1.1528
52577,-2.0000,0.3003,0.7344,0.7510,1.0017
52597,1.9999,-2.0000,0.8450,0.9674,1.0644
52617,0.4478,1.9999,0.8950,0.7168,1.0463
52637,-1.3318,-2.0000,0.8411,0.8756,0.9601
52657,1.9999,1.9999,1.0627,0.9516,1.1273
52677,-2.0000,-2.0000,0.8096,1.0347,0.9941
52697,1.9999,1.3713,1.1697,0.8509,1.0848
52717,-2.0000,1.6289,0.7937,0.8564,1.1390
52737,1.9999,-2.0000,0.8252,1.0401,0.9940
52757,0.9070,1.9999,0.9268,0.6719,1.1587
52777,-2.0000,-2.0000,0.9001,1.0656,0.9662
52797,1.9999,1.9999,1.1074,0.9533,1.1406
52817,-2.0000,-2.0000,0.7153,1.0339,0.9848
52837,1.9999,0.4070,1.0959,0.7214,1.0365
52857,-1.8728,1.9999,0.7917,0.9287,1.0861
52877,1.7781,-2.0000,0.7480,0.9805,0.9480
52897,1.2041,1.9999,0.9395,0.7175,1.1522
52917,-2.0000,-2.0000,0.9060,1.0692,0.9531
52937,1.9999,1.9999,1.1897,0.9535,1.1570
52957,-2.0000,-2.0000,0.6960,1.0364,0.9881
52977,1.9999,-0.3923,1.0117,0.6820,1.0730
52997,-1.4624,1.9999,0.7737,0.9014,0.9650
53017,1.3286,-2.0000,0.6899,0.8375,0.9422
53037,1.4292,1.9999,1.0129,0.7846,1.1425
53057,-2.0000,-2.0000,0.8660,1.0602,0.9571
53077,1.9999,1.9999,1.2598,0.9638,1.1617
53097,-2.0000,-2.0000,0.6960,1.0320,1.0025
53117,1.9999,-1.2102,0.9141,0.7243,1.1702
53137,-1.0085,1.9999,0.7187,0.8943,0.8676
53157,0.7788,-2.0000,0.6772,0.6954,0.9582
53177,1.6140,1.9999,1.0166,0.8545,1.1093
53197,-2.0000,-2.0000,0.8611,1.0444,0.9689
53217,1.9999,1.9999,1.2974,0.9785,1.1524
53237,-2.0000,-1.7981,0.6628,0.9850,0.9837
53257,1.9999,-1.9399,0.8926,0.8321,1.2766
53277,-0.5681,1.9999,0.7437,0.8944,0.8586
53297,0.1941,-2.0000,0.7009,0.6123,0.9999
53317,1.8062,1.9999,1.0508,0.9223,1.1068
53337,-2.0000,-2.0000,0.8674,1.0313,1.0008
53357,1.9999,1.9999,1.3018,0.9888,1.1524
53377,-2.0000,-0.9771,0.6584,0.8442,0.9399
53397,1.9999,-2.0000,0.8865,0.8843,1.1957
53417,-0.1997,1.9999,0.7805,0.8231,0.9025
53437,-0.3713,-2.0000,0.7417,0.6658,0.9707
53457,1.9999,1.9999,1.0496,0.9547,1.1238
53477,-2.0000,-2.0000,0.8882,1.0390,1.0010
53497,1.9999,-2.0000,0.8916,0.7997,1.3593
53517,-0.4058,1.9999,0.7375,0.9120,0.8747
53537,-0.0850,-2.0000,0.7207,0.5993,1.0274
53557,1.9111,1.9999,1.0583,0.9536,1.1175
53577,-2.0000,-2.0000,0.8899,1.0301,1.0179
53597,1.9999,1.9999,1.2976,0.9904,1.1583
53617,-2.0000,-0.4871,0.6860,0.7904,0.9453
53637,1.9999,-2.0000,0.8672,0.9096,1.1491
53657,0.0164,1.9999,0.8335,0.7824,0.9510
53677,-0.6851,-2.0000,0.7764,0.7237,0.9657
53697,1.9999,1.9999,1.0398,0.9518,1.1240
53717,-2.0000,-2.0000,0.8596,1.0381,0.9957
53737,1.9999,1.9999,1.2605,0.9795,1.1540
53757,-2.0000,0.2283,0.7314,0.7479,1.0016
53777,1.9999,-2.0000,0.8472,0.9667,1.0663
53797,0.2991,1.9999,0.8650,0.7201,1.0185
53817,-1.0344,-2.0000,0.8057,0.8159,0.9427
53837,1.9999,1.9999,1.0386,0.9416,1.1300
53857,-2.0000,-2.0000,0.8450,1.0421,0.9868
53877,1.9999,1.9999,1.2273,0.9742,1.1484
53897,-2.0000,0.6284,0.7344,0.7465,1.0503
53917,1.9999,-2.0000,0.8398,0.9998,1.0254
53937,0.4590,1.9999,0.8965,0.6898,1.0630
53957,-1.2771,-2.0000,0.8289,0.8800,0.9378
53977,1.9999,1.9999,1.0439,0.9392,1.1332
53997,-2.0000,-2.0000,0.8318,1.0425,0.9853
54017,1.9999,1.8623,1.2144,0.9436,1.1334
54037,-2.0000,0.9631,0.7478,0.7615,1.0918
54057,1.9999,-2.0000,0.8403,1.0202,1.0088
54077,0.5752,1.9999,0.8931,0.6743,1.0908
54097,-1.4314,-2.0000,0.8533,0.9225,0.9382
54117,1.9999,1.9999,1.0364,0.9378,1.1340
54137,-2.0000,-2.0000,0.8230,1.0428,0.9830
54157,1.9999,1.8691,1.2102,0.9447,1.1321
54177,-2.0000,0.8452,0.7444,0.7501,1.0792
54197,1.9999,-2.0000,0.8379,1.0155,1.0098
54217,0.4631,1.9999,0.8640,0.6782,1.0624
54237,-1.1963,-2.0000,0.8311,0.8718,0.9237
54257,1.9999,1.9999,1.0603,0.9315,1.1445
54277,-2.0000,-2.0000,0.8477,1.0481,0.9846
54297,1.9999,1.9999,1.2539,0.9700,1.1638
54317,-2.0000,0.3083,0.7212,0.7403,1.0266
54337,1.9999,-2.0000,0.8433,0.9837,1.0456
54357,0.2156,1.9999,0.8645,0.7086,1.0157
54377,-0.8174,-2.0000,0.7888,0.7876,0.9284
54397,1.9999,1.9999,1.0376,0.9289,1.1459
54417,-2.0000,-2.0000,0.8943,1.0513,0.9900
54437,1.9999,1.9999,1.2673,0.9688,1.1739
54457,-2.0000,-0.5181,0.6982,0.7922,0.9628
54477,1.9999,-2.0000,0.8652,0.9259,1.1283
54497,-0.1938,1.9999,0.7815,0.7830,0.9246
54517,-0.2043,-2.0000,0.7249,0.6814,0.9409
54537,1.9204,1.9999,1.0447,0.9163,1.1376
54557,-2.0000,-2.0000,0.8657,1.0498,0.9793
54577,1.9999,1.9999,1.2903,0.9732,1.1665
54597,-2.0000,-1.6360,0.6543,0.9576,0.9716
54617,1.9999,-1.8674,0.8853,0.8292,1.2400
54637,-0.7483,1.9999,0.7349,0.8969,0.8539
54657,0.6377,-2.0000,0.6504,0.6487,0.9886
54677,1.6204,1.9999,1.0146,0.8711,1.0999
54697,-2.0000,-2.0000,0.8750,1.0380,0.9812
54717,1.9999,1.9999,1.2695,0.9832,1.1410
54737,-2.0000,-2.0000,0.6958,1.0204,1.0135
54757,1.9999,-0.5239,0.9734,0.6762,1.1040
54777,-1.5166,1.9999,0.7849,0.9356,0.9409
54797,1.5977,-2.0000,0.7090,0.8681,0.9889
54817,1.1953,1.9999,0.9607,0.7608,1.1134
54837,-2.0000,-2.0000,0.8926,1.0501,0.9664
54857,1.9999,1.9999,1.1267,0.9672,1.1188
54877,-2.0000,-2.0000,0.7407,1.0251,0.9943
54897,1.9999,1.1187,1.1465,0.8150,1.0545
54917,-2.0000,1.5996,0.7795,0.8579,1.1005
54937,1.9999,-2.0000,0.8125,1.0294,0.9864
54957,0.6292,1.9999,0.8975,0.6713,1.0909
54977,-1.3474,-2.0000,0.8318,0.9114,0.9203
54997,1.9999,1.9999,1.0593,0.9306,1.1441
55017,-2.0000,-2.0000,0.8911,1.0481,0.9957
55037,1.9999,1.9999,1.2747,0.9700,1.1773
55057,-2.0000,-0.5103,0.6980,0.7862,0.9758
55077,1.9999,-2.0000,0.8601,0.9338,1.1197
55097,-0.3091,1.9999,0.7649,0.7874,0.9139
55117,0.0605,-2.0000,0.6882,0.6732,0.9330
55137,1.7734,1.9999,1.0452,0.8814,1.1259
55157,-2.0000,-2.0000,0.8513,1.0484,0.9696
55177,1.9999,1.9999,1.2935,0.9745,1.1593
55197,-2.0000,-2.0000,0.6824,1.0266,1.0107
55217,1.9999,-0.9097,0.9375,0.6957,1.1391
55237,-1.3337,1.9999,0.7612,0.9258,0.9033
55257,1.4236,-2.0000,0.6799,0.8122,0.9892
55277,1.2615,1.9999,0.9856,0.7833,1.1056
55297,-2.0000,-2.0000,0.8965,1.0454,0.9730
55317,1.9999,1.9999,1.1360,0.9714,1.1170
55337,-2.0000,-2.0000,0.7300,1.0229,0.9958
55357,1.9999,1.2361,1.1589,0.8364,1.0598
55377,-2.0000,1.3257,0.7800,0.8141,1.0721
55397,1.9999,-2.0000,0.8110,1.0153,0.9984
55417,0.4436,1.9999,0.8833,0.6807,1.0534
55437,-1.0227,-2.0000,0.8232,0.8407,0.9190
55457,1.9999,1.9999,1.0330,0.9233,1.1499
55477,-2.0000,-2.0000,0.8982,1.0540,0.9877
55497,1.9999,1.9999,1.3118,0.9679,1.1888
55517,-2.0000,-1.3508,0.6614,0.9083,0.9711
55537,1.9999,-1.9070,0.8867,0.8625,1.2046
55557,-0.7915,1.9999,0.7314,0.8813,0.8670
55577,0.7830,-2.0000,0.6594,0.6776,0.9844
55597,1.5205,1.9999,1.0081,0.8441,1.1018
55617,-2.0000,-2.0000,0.8743,1.0401,0.9773
55637,1.9999,1.9999,1.1860,0.9780,1.1218
55657,-2.0000,-2.0000,0.6990,1.0209,0.9978
55677,1.9999,0.7639,1.1152,0.7627,1.0429
55697,-2.0000,1.7898,0.8071,0.9127,1.0835
55717,1.9999,-2.0000,0.8020,1.0217,0.9894
55737,0.5620,1.9999,0.8892,0.6758,1.0731
55757,-1.1355,-2.0000,0.8364,0.8683,0.9184
55777,1.9999,1.9999,1.0605,0.9228,1.1579
55797,-2.0000,-2.0000,0.9048,1.0543,0.9951
55817,1.9999,1.9999,1.3098,0.9671,1.1940
55837,-2.0000,-1.9124,0.6387,1.0145,1.0079
55857,1.9999,-1.3633,0.8950,0.7519,1.1789
55877,-1.1853,1.9999,0.7476,0.9233,0.8791
55897,1.3323,-2.0000,0.6572,0.7751,1.0006
55917,1.2876,1.9999,0.9722,0.7993,1.0913
55937,-2.0000,-2.0000,0.8806,1.0403,0.9701
55957,1.9999,1.9999,1.0881,0.9749,1.0936
55977,-2.0000,-2.0000,0.8335,1.0185,1.0125
55997,1.9999,1.9999,1.2444,0.9907,1.1367
56017,-2.0000,-0.1069,0.7234,0.7424,0.9893
56037,1.9999,-2.0000,0.8486,0.9562,1.0806
56057,-0.3801,1.9999,0.7378,0.7746,0.9077
56077,0.3708,-2.0000,0.6829,0.6881,0.9236
56097,1.6316,1.9999,1.0239,0.8394,1.1252
56117,-2.0000,-2.0000,0.8640,1.0544,0.9571
56137,1.9999,1.9999,1.1858,0.9665,1.1327
56157,-2.0000,-2.0000,0.7227,1.0277,0.9952
56177,1.9999,1.1580,1.1465,0.8196,1.0594
56197,-2.0000,1.1602,0.7737,0.7965,1.0434
56217,1.9999,-2.0000,0.8037,1.0012,1.0084
56237,0.1350,1.9999,0.8323,0.6977,0.9946
56257,-0.3416,-2.0000,0.7168,0.7423,0.8922
56277,1.8630,1.9999,1.0610,0.8774,1.1576
56297,-2.0000,-2.0000,0.8481,1.0638,0.9557
56317,1.9999,1.9999,1.2529,0.9610,1.1642
56337,-2.0000,-2.0000,0.6936,1.0338,0.9997
56357,1.9999,0.5559,1.1003,0.7311,1.0527
56377,-2.0000,1.7737,0.8044,0.9156,1.0759
56397,1.9999,-2.0000,0.7969,1.0159,0.9963
56417,0.3931,1.9999,0.8823,0.6795,1.0475
56437,-0.6990,-2.0000,0.7737,0.7950,0.9052
56457,1.9795,1.9999,1.0886,0.9034,1.1832
56477,-2.0000,-2.0000,0.8677,1.0665,0.9757
56497,1.9999,1.9999,1.2776,0.9588,1.1877
56517,-2.0000,-2.0000,0.6907,1.0359,1.0132
56537,1.9999,0.2075,1.0430,0.6974,1.0597
56557,-2.0000,1.9999,0.8091,0.9779,1.0728
56577,1.9999,-2.0000,0.7878,1.0155,0.9928
56597,0.4788,1.9999,0.8723,0.6807,1.0516
56617,-0.7585,-2.0000,0.7676,0.8055,0.8998
56637,1.9999,1.9999,1.0698,0.9073,1.1787
56657,-2.0000,-2.0000,0.8403,1.0678,0.9611
56677,1.9999,1.9999,1.2493,0.9576,1.1726
56697,-2.0000,-2.0000,0.6929,1.0359,1.0013
56717,1.9999,0.7673,1.1130,0.7561,1.0564
56737,-2.0000,1.3589,0.7891,0.8365,1.0437
56757,1.9999,-2.0000,0.8159,0.9987,1.0173
56777,0.0491,1.9999,0.7866,0.7038,0.9772
56797,-0.0364,-2.0000,0.6812,0.7213,0.8911
56817,1.7610,1.9999,1.0273,0.8475,1.1519
56837,-2.0000,-2.0000,0.8459,1.0679,0.9395
56857,1.9999,1.9999,1.1768,0.9565,1.1395
56877,-2.0000,-2.0000,0.7817,1.0332,1.0006
56897,1.9999,1.9999,1.2322,0.9802,1.1464
56917,-2.0000,-0.3662,0.7329,0.7639,0.9798
56937,1.9999,-2.0000,0.8472,0.9428,1.1014
56957,-0.7939,1.9999,0.7202,0.8322,0.8820
56977,1.1162,-2.0000,0.6338,0.7512,0.9603
56997,1.2915,1.9999,0.9680,0.7818,1.0958
57017,-2.0000,-2.0000,0.8730,1.0505,0.9458
57037,1.9999,1.9999,1.0474,0.9666,1.0840
57057,-2.0000,-2.0000,0.9172,1.0232,1.0159
57077,1.9999,1.9999,1.3127,0.9889,1.1651
57097,-2.0000,-2.0000,0.6677,1.0162,1.0365
57117,1.9999,-0.2996,0.9746,0.6919,1.0709
57137,-1.9358,1.9999,0.8293,0.9902,1.0225
57157,1.9999,-2.0000,0.7722,0.9915,1.0083
57177,0.4187,1.9999,0.8582,0.7045,1.0135
57197,-0.4990,-2.0000,0.7371,0.7569,0.9055
57217,1.8767,1.9999,1.0625,0.8822,1.1634
57237,-2.0000,-2.0000,0.8479,1.0638,0.9604
57257,1.9999,1.9999,1.1624,0.9584,1.1434
57277,-2.0000,-2.0000,0.7654,1.0316,1.0038
57297,1.9999,1.9999,1.2415,0.9818,1.1481
57317,-2.0000,-0.4155,0.7339,0.7674,0.9808
57337,1.9999,-2.0000,0.8486,0.9398,1.1083
57357,-0.8477,1.9999,0.7212,0.8421,0.8812
57377,1.2146,-2.0000,0.6294,0.7648,0.9696
57397,1.2434,1.9999,0.9490,0.7761,1.0892
57417,-1.9275,-2.0000,0.8479,1.0329,0.9335
57437,1.9999,1.9999,1.0610,0.9636,1.0867
57457,-2.0000,-2.0000,0.9233,1.0260,1.0131
57477,1.9999,1.9999,1.3030,0.9868,1.1642
57497,-2.0000,-2.0000,0.6768,1.0171,1.0355
