timestamp,ax,ay,az,vibration,rms
1437,0.0535,-0.0024,0.9109,0.2737,0.2737
1457,0.0496,-0.0007,0.9131,0.1922,0.4659
1477,0.0500,-0.0024,0.9080,0.1330,0.5990
1497,0.0503,-0.0051,0.9116,0.0942,0.6932
1517,0.0518,-0.0044,0.9124,0.0662,0.7594
1537,0.0493,0.0002,0.9116,0.0461,0.8054
1557,0.0496,-0.0024,0.9143,0.0331,0.8385
1577,0.0520,-0.0037,0.9033,0.0199,0.8584
1597,0.0486,0.0027,0.9080,0.0154,0.8737
1617,0.0508,-0.0017,0.9119,0.0119,0.8855
1637,0.0469,-0.0034,0.9128,0.0086,0.8941
1657,0.0503,-0.0063,0.9084,0.0049,0.8988
1677,0.0513,-0.0015,0.9099,0.0038,0.9026
1697,0.0500,0.0037,0.9163,0.0049,0.9071
1717,0.0542,0.0059,0.9053,0.0024,0.9070
1737,0.0518,-0.0085,0.9109,0.0033,0.9086
1757,0.0493,-0.0034,0.9121,0.0017,0.9101
1777,0.0481,-0.0039,0.9187,0.0032,0.9130
1797,0.0547,0.0000,0.9104,0.0017,0.9127
1817,0.0476,-0.0022,0.9053,0.0021,0.9109
1837,0.0496,-0.0063,0.9087,0.0013,0.9106
1857,0.0454,-0.0027,0.9077,0.0015,0.9101
1877,0.0513,-0.0017,0.9111,0.0011,0.9108
1897,0.0510,0.0002,0.9128,0.0014,0.9119
1917,0.0491,-0.0005,0.9082,0.0008,0.9112
1937,0.0496,-0.0042,0.9080,0.0010,0.9106
1957,0.0496,0.0000,0.9072,0.0009,0.9100
1977,0.0496,-0.0032,0.9143,0.0018,0.9117
1997,0.0508,-0.0022,0.9124,0.0007,0.9123
2017,0.0486,-0.0029,0.9094,0.0007,0.9118
2037,0.0481,0.0017,0.9116,0.0013,0.9122
2057,0.0488,-0.0032,0.9126,0.0008,0.9127
2077,0.0505,-0.0039,0.9104,0.0008,0.9124
2097,0.0515,-0.0027,0.9038,0.0023,0.9103
2117,0.0532,-0.0022,0.9036,0.0019,0.9087
2137,0.0498,-0.0042,0.9121,0.0016,0.9102
2157,0.0486,-0.0073,0.9097,0.0015,0.9104
2177,0.0513,-0.0039,0.9131,0.0013,0.9116
2197,0.0510,-0.0051,0.9141,0.0012,0.9128
2217,0.0479,-0.0037,0.9124,0.0009,0.9130
2237,0.0496,-0.0027,0.9121,0.0005,0.9132
2257,0.0530,-0.0024,0.9080,0.0016,0.9121
2277,0.0518,-0.0024,0.9177,0.0022,0.9142
2297,0.0488,-0.0017,0.9092,0.0013,0.9131
2317,0.0503,-0.0037,0.9043,0.0022,0.9109
2337,0.0483,-0.0073,0.9023,0.0026,0.9087
2357,0.0510,-0.0068,0.9119,0.0016,0.9101
2377,0.0508,-0.0049,0.9146,0.0018,0.9119
2397,0.0510,-0.0046,0.9092,0.0004,0.9115
2417,0.0503,-0.0042,0.9114,0.0005,0.9119
2437,0.0513,-0.0027,0.9097,0.0007,0.9116
2457,0.0486,-0.0032,0.9116,0.0008,0.9120
2477,0.0554,-0.0042,0.9038,0.0026,0.9101
2497,0.0527,-0.0034,0.9075,0.0005,0.9098
2517,0.0488,0.0012,0.9080,0.0018,0.9096
2537,0.0503,-0.0029,0.9067,0.0005,0.9092
2557,0.0540,-0.0007,0.9063,0.0012,0.9088
2577,0.0505,-0.0044,0.9138,0.0021,0.9107
2597,0.0496,-0.0044,0.9060,0.0012,0.9097
2617,0.0476,0.0007,0.9167,0.0030,0.9122
2637,0.0459,-0.0032,0.9141,0.0016,0.9131
2657,0.0498,-0.0044,0.9099,0.0009,0.9125
2677,0.0500,-0.0032,0.9084,0.0009,0.9117
2697,0.0479,-0.0039,0.9092,0.0006,0.9113
2717,0.0500,-0.0042,0.9094,0.0005,0.9112
2737,0.0508,-0.0015,0.9087,0.0009,0.9109
2757,0.0522,-0.0034,0.9111,0.0009,0.9114
2777,0.0522,-0.0066,0.9177,0.0026,0.9137
2797,0.0547,-0.0068,0.9106,0.0015,0.9133
2817,0.0461,-0.0044,0.9165,0.0023,0.9146
2837,0.0493,0.0000,0.9150,0.0016,0.9151
2857,0.0493,-0.0081,0.9043,0.0032,0.9123
2877,0.0298,-0.0029,0.9478,0.0126,0.9230
2897,0.0535,0.0022,0.8967,0.0083,0.9156
2917,0.0642,-0.0112,0.8884,0.0098,0.9081
2937,0.0442,-0.0071,0.9175,0.0041,0.9112
2957,0.0496,-0.0093,0.9092,0.0011,0.9110
2977,0.0581,-0.0059,0.9048,0.0030,0.9097
2997,0.0452,-0.0017,0.9082,0.0025,0.9096
3017,0.0488,-0.0022,0.9185,0.0032,0.9126
3037,0.0498,0.0010,0.9089,0.0017,0.9119
3057,0.0481,-0.0002,0.9175,0.0022,0.9140
3077,0.0493,-0.0017,0.9160,0.0010,0.9150
3097,0.0479,-0.0002,0.9106,0.0011,0.9141
3117,0.0520,-0.0034,0.9063,0.0023,0.9122
3137,0.0518,-0.0037,0.9163,0.0018,0.9138
3157,0.0459,0.0005,0.9092,0.0019,0.9128
3177,0.0540,-0.0020,0.9097,0.0016,0.9123
3197,0.0488,-0.0010,0.9080,0.0010,0.9114
3217,0.0515,-0.0032,0.9077,0.0010,0.9107
3237,0.0474,-0.0024,0.9163,0.0023,0.9128
3257,0.0483,-0.0039,0.9087,0.0010,0.9119
3277,0.0491,0.0005,0.9072,0.0014,0.9109
3297,0.0527,0.0005,0.9075,0.0014,0.9103
3317,0.0527,0.0000,0.9089,0.0008,0.9104
3337,0.0486,-0.0034,0.9119,0.0014,0.9112
3357,0.0515,-0.0012,0.8999,0.0030,0.9083
3377,0.0510,-0.0002,0.9084,0.0006,0.9087
3397,0.0471,-0.0049,0.9119,0.0021,0.9100
3417,0.0496,-0.0051,0.9087,0.0009,0.9100
3437,0.0510,-0.0046,0.9116,0.0011,0.9110
3457,0.0527,0.0000,0.9124,0.0016,0.9118
3477,0.0464,-0.0020,0.9133,0.0016,0.9126
3497,0.0518,-0.0042,0.9055,0.0019,0.9109
3517,0.0491,-0.0027,0.9065,0.0010,0.9100
3537,0.0479,-0.0037,0.9070,0.0008,0.9095
3557,0.0471,-0.0046,0.9131,0.0017,0.9109
3577,0.0483,-0.0042,0.9067,0.0009,0.9101
3597,0.0510,-0.0029,0.9070,0.0009,0.9096
3617,0.0542,-0.0054,0.9084,0.0016,0.9097
3637,0.0518,-0.0024,0.9087,0.0006,0.9099
3657,0.0481,-0.0002,0.9124,0.0018,0.9110
3677,0.0505,-0.0007,0.9119,0.0009,0.9117
3697,0.0527,-0.0015,0.9097,0.0008,0.9115
3717,0.0483,-0.0022,0.9084,0.0009,0.9110
3737,0.0483,0.0000,0.9075,0.0010,0.9103
3757,0.0493,0.0002,0.9136,0.0015,0.9117
3777,0.0476,-0.0039,0.9106,0.0011,0.9118
3797,0.0520,-0.0027,0.9097,0.0010,0.9116
3817,0.0486,-0.0022,0.9053,0.0015,0.9101
3837,0.0496,-0.0039,0.9099,0.0006,0.9104
3857,0.0496,0.0032,0.9094,0.0017,0.9105
3877,0.0510,0.0002,0.9111,0.0008,0.9111
3897,0.0500,-0.0015,0.9146,0.0015,0.9126
3917,0.0483,-0.0049,0.9114,0.0013,0.9126
3937,0.0491,-0.0022,0.9072,0.0012,0.9114
3957,0.0486,-0.0005,0.9109,0.0006,0.9116
3977,0.0505,0.0017,0.9119,0.0012,0.9121
3997,0.0500,0.0015,0.9092,0.0008,0.9116
4017,0.0493,-0.0027,0.9167,0.0021,0.9136
4037,0.0513,0.0007,0.9116,0.0007,0.9134
4057,0.0483,-0.0044,0.9094,0.0015,0.9126
4077,0.0486,0.0017,0.9136,0.0012,0.9133
4097,0.0491,-0.0002,0.9058,0.0019,0.9114
4117,0.0498,0.0005,0.9114,0.0005,0.9118
4137,0.0520,-0.0037,0.9058,0.0019,0.9104
4157,0.0498,-0.0032,0.9138,0.0015,0.9119
4177,0.0488,0.0017,0.9165,0.0021,0.9136
4197,0.0496,0.0034,0.9116,0.0013,0.9134
4217,0.0479,0.0017,0.9109,0.0007,0.9131
4237,0.0476,-0.0010,0.9126,0.0008,0.9133
4257,0.0488,-0.0005,0.9109,0.0004,0.9130
4277,0.0522,0.0005,0.9111,0.0011,0.9129
4297,0.0493,0.0005,0.9109,0.0002,0.9127
4317,0.0493,-0.0020,0.9055,0.0019,0.9109
4337,0.0483,0.0000,0.9077,0.0007,0.9103
4357,0.0532,0.0002,0.9114,0.0014,0.9111
4377,0.0479,-0.0007,0.9104,0.0008,0.9113
4397,0.0537,-0.0044,0.9099,0.0017,0.9113
4417,0.0476,-0.0027,0.9067,0.0014,0.9103
4437,0.0474,-0.0007,0.9131,0.0015,0.9115
4457,0.0476,-0.0078,0.9072,0.0021,0.9106
4477,0.0508,0.0049,0.9063,0.0027,0.9097
4497,0.0488,-0.0002,0.9063,0.0007,0.9091
4517,0.0537,-0.0034,0.9119,0.0020,0.9104
4537,0.0486,0.0005,0.9114,0.0011,0.9111
4557,0.0476,-0.0012,0.9041,0.0018,0.9093
4577,0.0479,-0.0024,0.9155,0.0023,0.9116
4597,0.0503,0.0020,0.9094,0.0011,0.9113
4617,0.0454,-0.0022,0.9163,0.0023,0.9132
4637,0.0493,-0.0017,0.9092,0.0009,0.9124
4657,0.0525,0.0010,0.9097,0.0014,0.9120
4677,0.0522,-0.0007,0.9148,0.0015,0.9133
4697,0.0493,-0.0015,0.9153,0.0011,0.9143
4717,0.0518,-0.0017,0.9084,0.0015,0.9130
4737,0.0479,-0.0012,0.9053,0.0021,0.9110
4757,0.0483,0.0010,0.9128,0.0012,0.9120
4777,0.0515,-0.0007,0.9045,0.0019,0.9102
4797,0.0496,-0.0046,0.9124,0.0016,0.9112
4817,0.0476,-0.0032,0.9155,0.0019,0.9129
4837,0.0520,-0.0012,0.9109,0.0009,0.9127
4857,0.0486,-0.0005,0.9143,0.0011,0.9136
4877,0.0503,0.0010,0.9097,0.0011,0.9128
4897,0.0515,0.0022,0.9065,0.0018,0.9114
4917,0.0505,-0.0051,0.9072,0.0018,0.9105
4937,0.0505,0.0042,0.9121,0.0019,0.9114
4957,0.0493,-0.0007,0.9138,0.0012,0.9125
4977,0.0508,0.0005,0.9128,0.0006,0.9131
4997,0.0522,0.0007,0.9119,0.0006,0.9132
5017,0.0583,0.0020,0.9114,0.0023,0.9132
5037,0.0522,-0.0020,0.9065,0.0018,0.9116
5057,0.0498,-0.0007,0.9109,0.0010,0.9118
5077,0.0493,-0.0029,0.9063,0.0017,0.9105
5097,0.0498,0.0015,0.9082,0.0009,0.9102
5117,0.0513,0.0012,0.9106,0.0007,0.9108
5137,0.0503,0.0032,0.9102,0.0010,0.9110
5157,0.0518,-0.0061,0.9080,0.0022,0.9105
5177,0.0503,-0.0015,0.9033,0.0018,0.9088
5197,0.0466,-0.0010,0.9128,0.0021,0.9104
5217,0.0486,-0.0010,0.9072,0.0006,0.9098
5237,0.0447,-0.0007,0.9080,0.0014,0.9096
5257,0.0491,-0.0010,0.9092,0.0004,0.9099
5277,0.0503,-0.0037,0.9055,0.0014,0.9090
5297,0.0522,-0.0017,0.9077,0.0010,0.9090
5317,0.0466,-0.0061,0.9121,0.0021,0.9103
5337,0.0486,0.0000,0.9138,0.0017,0.9118
5357,0.0449,-0.0002,0.9146,0.0018,0.9129
5377,0.0522,0.0027,0.9080,0.0022,0.9119
5397,0.0466,-0.0015,0.9131,0.0011,0.9126
5417,0.0474,0.0017,0.9126,0.0009,0.9130
5437,0.0496,0.0005,0.9114,0.0005,0.9129
5457,0.0505,-0.0020,0.9136,0.0011,0.9135
5477,0.0513,-0.0002,0.9128,0.0007,0.9137
5497,0.0469,0.0022,0.9070,0.0020,0.9121
5517,0.0454,0.0005,0.9102,0.0011,0.9118
5537,0.0479,-0.0032,0.9089,0.0012,0.9113
5557,0.0479,0.0022,0.9111,0.0009,0.9117
5577,0.0510,-0.0015,0.9141,0.0015,0.9128
5597,0.0476,0.0012,0.9067,0.0015,0.9114
5617,0.0435,0.0012,0.9089,0.0016,0.9109
5637,0.0518,-0.0015,0.9148,0.0022,0.9125
5657,0.0505,0.0012,0.9097,0.0009,0.9121
5677,0.0471,-0.0015,0.9084,0.0010,0.9114
5697,0.0479,-0.0017,0.9148,0.0015,0.9128
5717,0.0500,-0.0024,0.9072,0.0015,0.9115
5737,0.0493,-0.0029,0.9080,0.0009,0.9109
5757,0.0508,-0.0022,0.9116,0.0008,0.9115
5777,0.0493,-0.0027,0.9119,0.0006,0.9120
5797,0.0474,0.0002,0.9153,0.0017,0.9134
5817,0.0522,0.0002,0.9104,0.0012,0.9129
5837,0.0447,0.0029,0.9075,0.0023,0.9116
5857,0.0500,-0.0032,0.9087,0.0013,0.9111
5877,0.0508,0.0027,0.9131,0.0015,0.9122
5897,0.0469,-0.0015,0.9104,0.0009,0.9120
5917,0.0486,0.0032,0.9031,0.0025,0.9097
5937,0.0461,-0.0024,0.9133,0.0019,0.9111
5957,0.0513,-0.0022,0.9114,0.0013,0.9116
5977,0.0491,-0.0054,0.9087,0.0015,0.9112
5997,0.0481,-0.0034,0.9170,0.0022,0.9133
6017,0.0522,0.0032,0.9082,0.0023,0.9122
6037,0.0518,-0.0005,0.9106,0.0006,0.9122
6057,0.0493,-0.0012,0.9084,0.0008,0.9115
6077,0.0486,-0.0027,0.9075,0.0011,0.9107
6097,0.0498,0.0002,0.9097,0.0005,0.9108
6117,0.0520,-0.0017,0.9114,0.0009,0.9114
6137,0.0474,-0.0012,0.9109,0.0009,0.9116
6157,0.0491,-0.0017,0.9119,0.0005,0.9121
6177,0.0481,-0.0010,0.9119,0.0005,0.9124
6197,0.0481,-0.0024,0.9109,0.0005,0.9123
6217,0.0466,-0.0024,0.9128,0.0009,0.9128
6237,0.0488,0.0007,0.9121,0.0008,0.9130
6257,0.0483,-0.0061,0.9070,0.0021,0.9116
6277,0.0505,-0.0012,0.9114,0.0008,0.9119
6297,0.0500,-0.0012,0.9084,0.0008,0.9113
6317,0.0520,-0.0046,0.9077,0.0013,0.9107
6337,0.0464,-0.0010,0.9121,0.0015,0.9115
6357,0.0486,-0.0049,0.9104,0.0008,0.9115
6377,0.0491,-0.0007,0.9109,0.0007,0.9117
6397,0.0481,-0.0032,0.9089,0.0006,0.9113
6417,0.0525,-0.0010,0.9153,0.0020,0.9129
6437,0.0496,-0.0029,0.9106,0.0004,0.9126
6457,0.0503,-0.0024,0.9099,0.0004,0.9122
6477,0.0471,-0.0027,0.9075,0.0013,0.9112
6497,0.0452,-0.0056,0.9050,0.0021,0.9097
6517,0.0476,-0.0022,0.9109,0.0008,0.9104
6537,0.0496,-0.0010,0.9070,0.0010,0.9098
6557,0.0486,-0.0015,0.9097,0.0005,0.9101
6577,0.0469,-0.0020,0.9082,0.0005,0.9099
6597,0.0498,-0.0081,0.9053,0.0021,0.9089
6617,0.0518,-0.0046,0.9111,0.0014,0.9100
6637,0.0498,-0.0015,0.9072,0.0009,0.9096
6657,0.0491,-0.0010,0.9111,0.0011,0.9105
6677,0.0505,-0.0042,0.9063,0.0010,0.9096
6697,0.0510,-0.0063,0.9128,0.0017,0.9110
6717,0.0498,0.0002,0.9119,0.0015,0.9117
6737,0.0493,-0.0024,0.9136,0.0010,0.9126
6757,0.0508,-0.0010,0.9080,0.0012,0.9117
6777,0.0535,-0.0022,0.9077,0.0013,0.9110
6797,0.0513,0.0027,0.9111,0.0015,0.9114
6817,0.0515,-0.0054,0.9131,0.0017,0.9124
6837,0.0530,-0.0039,0.9082,0.0011,0.9116
6857,0.0491,-0.0029,0.9063,0.0014,0.9104
6877,0.0505,-0.0005,0.9128,0.0014,0.9115
6897,0.0508,0.0002,0.9111,0.0008,0.9118
6917,0.0491,-0.0017,0.9146,0.0013,0.9130
6937,0.0503,0.0005,0.9124,0.0006,0.9133
6957,0.0459,-0.0032,0.9128,0.0015,0.9135
6977,0.0476,-0.0020,0.9084,0.0012,0.9123
6997,0.0493,0.0015,0.9075,0.0014,0.9113
7017,0.0481,-0.0046,0.9099,0.0012,0.9113
7037,0.0542,-0.0010,0.9104,0.0017,0.9115
7057,0.0498,0.0002,0.9080,0.0009,0.9108
7077,0.0508,-0.0007,0.9026,0.0021,0.9088
7097,0.0508,-0.0032,0.9094,0.0009,0.9094
7117,0.0471,-0.0039,0.9099,0.0013,0.9099
7137,0.0486,-0.0024,0.9109,0.0007,0.9106
7157,0.0500,0.0012,0.9089,0.0011,0.9105
7177,0.0510,0.0000,0.9121,0.0011,0.9114
7197,0.0466,-0.0054,0.9072,0.0019,0.9105
7217,0.0515,-0.0024,0.9133,0.0015,0.9118
7237,0.0503,0.0002,0.9065,0.0014,0.9106
7257,0.0476,0.0020,0.9111,0.0014,0.9111
7277,0.0518,-0.0029,0.9094,0.0011,0.9111
7297,0.0520,-0.0024,0.9065,0.0012,0.9101
7317,0.0525,0.0056,0.9177,0.0035,0.9129
7337,0.0491,-0.0044,0.9133,0.0017,0.9134
7357,0.0483,-0.0029,0.9128,0.0009,0.9136
7377,0.0474,0.0015,0.9165,0.0017,0.9148
7397,0.0493,-0.0007,0.9160,0.0007,0.9156
7417,0.0483,-0.0034,0.9143,0.0009,0.9156
7437,0.0486,-0.0012,0.9109,0.0010,0.9146
7457,0.0452,0.0002,0.9133,0.0012,0.9145
7477,0.0479,-0.0015,0.9177,0.0013,0.9159
7497,0.0518,0.0017,0.9099,0.0020,0.9145
7517,0.0503,-0.0042,0.9146,0.0013,0.9149
7537,0.0510,-0.0024,0.9021,0.0035,0.9115
7557,0.0540,-0.0046,0.9133,0.0018,0.9125
7577,0.0454,-0.0044,0.9043,0.0027,0.9104
7597,0.0474,-0.0046,0.9114,0.0010,0.9111
7617,0.0510,-0.0007,0.9119,0.0013,0.9117
7637,0.0500,-0.0007,0.9143,0.0013,0.9129
7657,0.0503,-0.0010,0.9089,0.0009,0.9121
7677,0.0505,-0.0024,0.9089,0.0006,0.9116
7697,0.0476,-0.0007,0.9160,0.0019,0.9133
7717,0.0522,-0.0010,0.9128,0.0009,0.9136
7737,0.0510,0.0007,0.9104,0.0009,0.9131
7757,0.0474,0.0007,0.9131,0.0011,0.9134
7777,0.0515,-0.0010,0.9121,0.0006,0.9135
7797,0.0493,-0.0039,0.9048,0.0024,0.9113
7817,0.0537,-0.0010,0.9148,0.0019,0.9128
7837,0.0493,-0.0039,0.9128,0.0010,0.9132
7857,0.0510,-0.0027,0.9106,0.0004,0.9129
7877,0.0500,-0.0010,0.9102,0.0006,0.9125
7897,0.0471,-0.0059,0.9089,0.0017,0.9118
7917,0.0510,-0.0005,0.9109,0.0009,0.9119
7937,0.0491,-0.0037,0.9131,0.0009,0.9127
7957,0.0527,0.0000,0.9143,0.0015,0.9136
7977,0.0488,-0.0039,0.9082,0.0014,0.9124
7997,0.0505,0.0032,0.9072,0.0021,0.9113
8017,0.0513,-0.0017,0.9080,0.0007,0.9107
8037,0.0479,0.0015,0.9126,0.0015,0.9116
8057,0.0466,-0.0022,0.9175,0.0024,0.9138
8077,0.0457,-0.0007,0.9070,0.0019,0.9121
8097,0.0459,-0.0022,0.9075,0.0012,0.9110
8117,0.0493,0.0034,0.9102,0.0015,0.9112
8137,0.0496,-0.0029,0.9099,0.0011,0.9112
8157,0.0503,-0.0027,0.9067,0.0013,0.9103
8177,0.0500,0.0022,0.9033,0.0020,0.9086
8197,0.0476,0.0020,0.9089,0.0010,0.9091
8217,0.0525,0.0000,0.9146,0.0023,0.9112
8237,0.0537,-0.0056,0.9063,0.0024,0.9102
8257,0.0513,-0.0029,0.9114,0.0009,0.9110
8277,0.0537,-0.0032,0.9089,0.0009,0.9108
8297,0.0508,0.0005,0.9106,0.0010,0.9112
8317,0.0493,-0.0029,0.9053,0.0016,0.9098
8337,0.0496,0.0010,0.9077,0.0010,0.9096
8357,0.0500,0.0042,0.9089,0.0016,0.9098
8377,0.0471,0.0017,0.9138,0.0019,0.9114
8397,0.0486,-0.0051,0.9097,0.0018,0.9113
8417,0.0474,-0.0037,0.9121,0.0012,0.9119
8437,0.0496,-0.0012,0.9128,0.0008,0.9126
8457,0.0442,-0.0059,0.9106,0.0019,0.9123
8477,0.0491,-0.0046,0.9070,0.0014,0.9111
8497,0.0483,0.0022,0.9128,0.0019,0.9120
8517,0.0474,-0.0051,0.9158,0.0018,0.9135
8537,0.0486,0.0002,0.9138,0.0010,0.9140
8557,0.0466,-0.0044,0.9089,0.0014,0.9128
8577,0.0500,-0.0012,0.9133,0.0010,0.9134
8597,0.0481,-0.0010,0.9136,0.0006,0.9138
8617,0.0510,-0.0037,0.9119,0.0010,0.9137
8637,0.0479,-0.0015,0.9099,0.0009,0.9129
8657,0.0503,-0.0039,0.9092,0.0010,0.9122
8677,0.0464,-0.0017,0.9128,0.0011,0.9128
8697,0.0469,-0.0044,0.9106,0.0008,0.9125
8717,0.0518,-0.0015,0.9111,0.0012,0.9125
8737,0.0476,-0.0037,0.9080,0.0011,0.9115
8757,0.0496,-0.0034,0.9167,0.0020,0.9135
8777,0.0496,-0.0039,0.9092,0.0010,0.9126
8797,0.0493,-0.0071,0.9099,0.0012,0.9122
8817,0.0491,-0.0022,0.9106,0.0007,0.9121
8837,0.0493,-0.0002,0.9106,0.0011,0.9121
8857,0.0491,0.0024,0.9063,0.0021,0.9107
8877,0.0476,0.0000,0.9080,0.0007,0.9103
8897,0.0479,-0.0010,0.9084,0.0003,0.9101
8917,0.0505,-0.0012,0.9092,0.0006,0.9102
8937,0.0488,-0.0010,0.9016,0.0022,0.9081
8957,0.0537,-0.0002,0.9104,0.0018,0.9092
8977,0.0471,0.0000,0.9109,0.0014,0.9101
8997,0.0498,0.0010,0.9089,0.0005,0.9102
9017,0.0510,-0.0022,0.9080,0.0008,0.9099
9037,0.0505,-0.0042,0.9138,0.0019,0.9115
9057,0.0525,-0.0024,0.9143,0.0015,0.9128
9077,0.0486,-0.0022,0.9116,0.0007,0.9128
9097,0.0471,-0.0017,0.9077,0.0015,0.9117
9117,0.0500,-0.0015,0.9089,0.0005,0.9113
9137,0.0488,-0.0010,0.9131,0.0010,0.9122
9157,0.0496,-0.0010,0.9094,0.0005,0.9118
9177,0.0500,-0.0010,0.9072,0.0010,0.9108
9197,0.0464,-0.0022,0.9075,0.0012,0.9102
9217,0.0461,-0.0027,0.9102,0.0009,0.9105
9237,0.0500,-0.0005,0.9106,0.0009,0.9110
9257,0.0510,-0.0022,0.9148,0.0017,0.9125
9277,0.0491,-0.0020,0.9082,0.0009,0.9116
9297,0.0510,-0.0024,0.9109,0.0006,0.9118
9317,0.0491,-0.0002,0.9058,0.0015,0.9104
9337,0.0483,-0.0002,0.9153,0.0019,0.9123
9357,0.0483,0.0000,0.9148,0.0012,0.9134
9377,0.0520,-0.0010,0.9070,0.0018,0.9119
9397,0.0505,0.0005,0.9104,0.0004,0.9119
9417,0.0496,-0.0020,0.9119,0.0006,0.9123
9437,0.0535,-0.0005,0.9111,0.0011,0.9124
9457,0.0481,0.0000,0.9087,0.0011,0.9117
9477,0.0503,-0.0010,0.9043,0.0018,0.9099
9497,0.0464,0.0027,0.9116,0.0018,0.9108
9517,0.0479,0.0007,0.9089,0.0004,0.9106
9537,0.0479,0.0015,0.9150,0.0018,0.9123
9557,0.0518,-0.0015,0.9099,0.0012,0.9120
9577,0.0491,0.0012,0.9084,0.0008,0.9113
9597,0.0491,-0.0015,0.9146,0.0015,0.9127
9617,0.0500,0.0002,0.9124,0.0004,0.9130
9637,0.0454,-0.0010,0.9072,0.0018,0.9116
9657,0.0525,-0.0012,0.9136,0.0016,0.9127
9677,0.0459,-0.0032,0.9097,0.0014,0.9121
9697,0.0474,0.0002,0.9124,0.0007,0.9125
9717,0.0466,-0.0015,0.9126,0.0006,0.9129
9737,0.0491,-0.0046,0.9089,0.0014,0.9121
9757,0.0500,-0.0032,0.9092,0.0008,0.9117
9777,0.0449,0.0027,0.9077,0.0021,0.9108
9797,0.0469,0.0000,0.9099,0.0004,0.9109
9817,0.0500,-0.0032,0.9116,0.0013,0.9115
9837,0.0522,0.0020,0.9119,0.0017,0.9121
9857,0.0464,-0.0022,0.9082,0.0013,0.9113
9877,0.0488,-0.0017,0.9119,0.0006,0.9118
9897,0.0479,-0.0015,0.9084,0.0007,0.9112
9917,0.0476,0.0017,0.9097,0.0009,0.9111
9937,0.0437,0.0024,0.9116,0.0017,0.9116
9957,0.0483,-0.0020,0.9072,0.0013,0.9107
9977,0.0474,-0.0007,0.9133,0.0012,0.9118
9997,0.0481,-0.0024,0.9141,0.0012,0.9129
10017,0.0500,-0.0020,0.9119,0.0008,0.9130
10037,0.0503,0.0010,0.9077,0.0015,0.9118
10057,0.0447,-0.0044,0.9102,0.0017,0.9116
10077,0.0496,-0.0020,0.9099,0.0006,0.9115
10097,0.0503,0.0010,0.9102,0.0010,0.9115
10117,0.0503,-0.0015,0.9158,0.0017,0.9132
10137,0.0476,-0.0017,0.9084,0.0012,0.9122
10157,0.0530,-0.0020,0.9121,0.0013,0.9126
10177,0.0488,-0.0029,0.9136,0.0009,0.9133
10197,0.0486,0.0012,0.9102,0.0011,0.9127
10217,0.0466,-0.0024,0.9048,0.0022,0.9107
10237,0.0466,-0.0005,0.9089,0.0007,0.9105
10257,0.0520,-0.0027,0.9060,0.0016,0.9096
10277,0.0461,0.0002,0.9053,0.0014,0.9087
10297,0.0469,0.0007,0.9146,0.0023,0.9108
10317,0.0500,0.0024,0.9055,0.0016,0.9096
10337,0.0498,0.0034,0.9031,0.0019,0.9081
10357,0.0527,-0.0046,0.9053,0.0022,0.9077
10377,0.0488,-0.0029,0.9114,0.0017,0.9092
10397,0.0488,-0.0017,0.9067,0.0004,0.9088
10417,0.0469,-0.0032,0.9143,0.0022,0.9108
10437,0.0527,-0.0007,0.9126,0.0016,0.9118
10457,0.0469,-0.0046,0.9114,0.0013,0.9121
10477,0.0515,-0.0024,0.9104,0.0008,0.9120
10497,0.0457,-0.0027,0.9094,0.0013,0.9116
10517,0.0481,-0.0022,0.9060,0.0013,0.9103
10537,0.0527,-0.0032,0.9106,0.0014,0.9108
10557,0.0496,-0.0032,0.9075,0.0006,0.9102
10577,0.0491,-0.0042,0.9099,0.0005,0.9105
10597,0.0459,0.0007,0.9082,0.0016,0.9102
10617,0.0491,-0.0020,0.9092,0.0002,0.9103
10637,0.0500,0.0010,0.9102,0.0011,0.9107
10657,0.0476,-0.0029,0.9053,0.0014,0.9094
10677,0.0496,-0.0012,0.9106,0.0008,0.9102
10697,0.0471,0.0037,0.9104,0.0017,0.9106
10717,0.0510,-0.0005,0.9094,0.0008,0.9107
10737,0.0471,-0.0032,0.9111,0.0012,0.9112
10757,0.0486,-0.0027,0.9077,0.0008,0.9105
10777,0.0486,-0.0029,0.9058,0.0011,0.9095
10797,0.0503,-0.0017,0.9133,0.0016,0.9111
10817,0.0505,-0.0010,0.9104,0.0006,0.9113
10837,0.0488,-0.0024,0.9114,0.0005,0.9117
10857,0.0505,-0.0012,0.9060,0.0014,0.9104
10877,0.0498,-0.0005,0.9038,0.0016,0.9088
10897,0.0471,0.0049,0.9138,0.0028,0.9107
10917,0.0459,-0.0017,0.9180,0.0028,0.9132
10937,0.0505,0.0022,0.9102,0.0012,0.9127
10957,0.0500,-0.0051,0.9141,0.0019,0.9135
10977,0.0515,0.0022,0.9067,0.0020,0.9119
10997,0.0483,-0.0022,0.9106,0.0008,0.9119
11017,0.0486,-0.0012,0.9082,0.0008,0.9112
11037,0.0483,0.0010,0.9094,0.0006,0.9111
11057,0.0498,-0.0027,0.9089,0.0008,0.9108
11077,0.0486,0.0010,0.9072,0.0009,0.9101
11097,0.0503,0.0005,0.9133,0.0014,0.9115
11117,0.0508,-0.0027,0.9119,0.0010,0.9120
11137,0.0503,0.0002,0.9077,0.0010,0.9112
11157,0.0493,-0.0020,0.9119,0.0008,0.9118
11177,0.0474,-0.0020,0.9077,0.0011,0.9109
11197,0.0496,0.0022,0.9109,0.0011,0.9113
11217,0.0503,-0.0010,0.9075,0.0009,0.9106
11237,0.0520,-0.0042,0.9041,0.0020,0.9091
11257,0.0498,-0.0015,0.9072,0.0002,0.9089
11277,0.0488,-0.0005,0.9092,0.0007,0.9094
11297,0.0486,-0.0027,0.9146,0.0020,0.9113
11317,0.0498,-0.0037,0.9133,0.0012,0.9123
11337,0.0459,-0.0020,0.9155,0.0017,0.9136
11357,0.0500,0.0007,0.9143,0.0012,0.9142
11377,0.0496,0.0022,0.9119,0.0011,0.9139
11397,0.0496,0.0032,0.9065,0.0021,0.9121
11417,0.0518,-0.0063,0.9104,0.0023,0.9120
11437,0.0500,-0.0037,0.9121,0.0008,0.9125
11457,0.0479,0.0034,0.9077,0.0020,0.9114
11477,0.0540,-0.0012,0.9082,0.0015,0.9109
11497,0.0493,0.0002,0.9165,0.0022,0.9130
11517,0.0452,-0.0022,0.9072,0.0021,0.9116
11537,0.0481,0.0029,0.9138,0.0016,0.9126
11557,0.0500,0.0002,0.9087,0.0009,0.9119
11577,0.0518,0.0020,0.9092,0.0011,0.9115
11597,0.0500,-0.0017,0.9172,0.0023,0.9136
11617,0.0503,0.0042,0.9092,0.0016,0.9127
11637,0.0500,-0.0017,0.9136,0.0011,0.9134
11657,0.0503,-0.0002,0.9058,0.0019,0.9115
11677,0.0444,0.0000,0.9097,0.0017,0.9113
11697,0.0488,0.0007,0.9146,0.0014,0.9127
11717,0.0496,-0.0022,0.9065,0.0017,0.9112
11737,0.0466,0.0020,0.9075,0.0012,0.9104
11757,0.0522,-0.0027,0.9143,0.0022,0.9121
11777,0.0513,-0.0012,0.9124,0.0008,0.9126
11797,0.0510,0.0005,0.9109,0.0005,0.9125
11817,0.0474,0.0005,0.9143,0.0013,0.9134
11837,0.0469,-0.0005,0.9111,0.0008,0.9131
11857,0.0532,-0.0010,0.9121,0.0014,0.9133
11877,0.0508,-0.0032,0.9070,0.0017,0.9118
11897,0.0532,-0.0044,0.9033,0.0025,0.9097
11917,0.0483,-0.0022,0.9104,0.0011,0.9103
11937,0.0496,-0.0005,0.9080,0.0006,0.9100
11957,0.0508,-0.0010,0.9080,0.0004,0.9098
11977,0.0471,-0.0017,0.9121,0.0015,0.9109
11997,0.0532,-0.0051,0.9114,0.0017,0.9115
12017,0.0491,-0.0015,0.9087,0.0007,0.9110
12037,0.0518,-0.0017,0.9119,0.0008,0.9117
12057,0.0488,0.0027,0.9138,0.0019,0.9127
12077,0.0505,-0.0012,0.9070,0.0013,0.9114
12097,0.0496,-0.0007,0.9094,0.0003,0.9112
12117,0.0515,0.0002,0.9067,0.0011,0.9103
12137,0.0466,-0.0056,0.9092,0.0019,0.9103
12157,0.0496,0.0005,0.9126,0.0013,0.9114
12177,0.0466,-0.0024,0.9075,0.0012,0.9106
12197,0.0481,0.0005,0.9106,0.0008,0.9110
12217,0.0503,-0.0012,0.9084,0.0007,0.9106
12237,0.0479,-0.0022,0.9084,0.0005,0.9104
12257,0.0486,0.0000,0.9075,0.0006,0.9099
12277,0.0466,0.0015,0.9072,0.0010,0.9094
12297,0.0493,-0.0005,0.9092,0.0005,0.9098
12317,0.0491,-0.0037,0.9094,0.0011,0.9101
12337,0.0498,-0.0063,0.9099,0.0016,0.9104
12357,0.0510,-0.0017,0.9106,0.0008,0.9109
12377,0.0481,-0.0027,0.9155,0.0018,0.9127
12397,0.0474,0.0015,0.9106,0.0013,0.9124
12417,0.0469,-0.0034,0.9131,0.0010,0.9130
12437,0.0483,-0.0059,0.9102,0.0013,0.9125
12457,0.0500,-0.0042,0.9102,0.0007,0.9122
12477,0.0479,-0.0007,0.9104,0.0009,0.9121
12497,0.0481,-0.0002,0.9053,0.0018,0.9104
12517,0.0486,0.0000,0.9133,0.0014,0.9117
12537,0.0493,-0.0012,0.9075,0.0009,0.9108
12557,0.0522,0.0054,0.9146,0.0027,0.9124
12577,0.0518,0.0012,0.9106,0.0006,0.9123
12597,0.0518,-0.0034,0.9092,0.0014,0.9118
12617,0.0513,0.0005,0.9114,0.0004,0.9121
12637,0.0518,-0.0012,0.9092,0.0006,0.9117
12657,0.0486,-0.0007,0.9099,0.0008,0.9115
12677,0.0471,-0.0037,0.9155,0.0021,0.9131
12697,0.0486,-0.0005,0.9116,0.0004,0.9130
12717,0.0510,-0.0005,0.9136,0.0008,0.9136
12737,0.0508,-0.0007,0.9106,0.0006,0.9132
12757,0.0469,0.0027,0.9153,0.0018,0.9142
12777,0.0483,-0.0017,0.9048,0.0025,0.9117
12797,0.0515,-0.0017,0.9097,0.0009,0.9115
12817,0.0471,-0.0012,0.9089,0.0009,0.9111
12837,0.0474,0.0005,0.9158,0.0019,0.9129
12857,0.0515,-0.0032,0.9094,0.0014,0.9123
12877,0.0508,0.0007,0.9150,0.0014,0.9135
12897,0.0469,0.0005,0.9104,0.0011,0.9130
12917,0.0498,-0.0037,0.9121,0.0010,0.9131
12937,0.0488,-0.0049,0.9128,0.0011,0.9134
12957,0.0491,0.0010,0.9116,0.0010,0.9133
12977,0.0493,0.0012,0.9153,0.0013,0.9143
12997,0.0520,-0.0017,0.9072,0.0019,0.9126
13017,0.0525,0.0010,0.9058,0.0019,0.9110
13037,0.0486,0.0005,0.9138,0.0014,0.9122
13057,0.0483,-0.0046,0.9075,0.0018,0.9112
13077,0.0483,-0.0010,0.9055,0.0014,0.9099
13097,0.0496,-0.0015,0.9124,0.0011,0.9110
13117,0.0510,-0.0002,0.9097,0.0006,0.9110
13137,0.0483,0.0010,0.9050,0.0016,0.9096
13157,0.0454,-0.0044,0.9092,0.0017,0.9098
13177,0.0498,-0.0063,0.9111,0.0017,0.9106
13197,0.0496,0.0024,0.9146,0.0023,0.9122
13217,0.0505,0.0010,0.9094,0.0010,0.9118
13237,0.0454,0.0020,0.9075,0.0017,0.9108
13257,0.0474,-0.0007,0.9111,0.0006,0.9113
13277,0.0496,-0.0007,0.9114,0.0007,0.9117
13297,0.0508,0.0002,0.9092,0.0008,0.9114
13317,0.0481,-0.0015,0.9080,0.0008,0.9107
13337,0.0500,-0.0049,0.9141,0.0019,0.9121
13357,0.0503,-0.0054,0.9102,0.0011,0.9120
13377,0.0488,-0.0037,0.9084,0.0007,0.9113
13397,0.0464,-0.0032,0.9067,0.0013,0.9103
13417,0.0505,0.0027,0.9043,0.0023,0.9089
13437,0.0479,-0.0020,0.9114,0.0012,0.9100
13457,0.0466,-0.0017,0.9045,0.0014,0.9087
13477,0.0483,-0.0002,0.9065,0.0005,0.9085
13497,0.0510,-0.0005,0.9089,0.0010,0.9090
13517,0.0532,-0.0034,0.9116,0.0019,0.9103
13537,0.0486,-0.0015,0.9094,0.0005,0.9104
13557,0.0496,-0.0012,0.9097,0.0002,0.9106
13577,0.0496,-0.0027,0.9124,0.0010,0.9115
13597,0.0491,-0.0005,0.9111,0.0005,0.9118
13617,0.0498,-0.0054,0.9133,0.0015,0.9127
13637,0.0493,-0.0027,0.9058,0.0017,0.9110
13657,0.0508,0.0012,0.9082,0.0013,0.9106
13677,0.0518,-0.0027,0.9116,0.0010,0.9113
13697,0.0510,-0.0007,0.9106,0.0004,0.9116
13717,0.0488,0.0015,0.9031,0.0024,0.9094
13737,0.0491,-0.0020,0.9084,0.0005,0.9095
13757,0.0520,-0.0005,0.9138,0.0018,0.9113
13777,0.0491,-0.0046,0.9136,0.0016,0.9123
13797,0.0466,-0.0039,0.9089,0.0013,0.9117
13817,0.0515,0.0005,0.9080,0.0014,0.9110
13837,0.0488,-0.0024,0.9082,0.0006,0.9106
13857,0.0474,-0.0024,0.9128,0.0013,0.9116
13877,0.0500,0.0010,0.9097,0.0010,0.9114
13897,0.0515,-0.0002,0.9116,0.0009,0.9119
13917,0.0522,-0.0017,0.9099,0.0008,0.9118
13937,0.0500,-0.0051,0.9116,0.0013,0.9121
13957,0.0479,0.0007,0.9063,0.0018,0.9108
13977,0.0491,-0.0017,0.9097,0.0002,0.9108
13997,0.0503,-0.0022,0.9146,0.0016,0.9124
14017,0.0479,-0.0015,0.9111,0.0006,0.9124
14037,0.0476,-0.0044,0.9141,0.0013,0.9132
14057,0.0449,-0.0015,0.9146,0.0014,0.9140
14077,0.0488,-0.0002,0.9099,0.0011,0.9131
14097,0.0476,-0.0044,0.9153,0.0013,0.9142
14117,0.0471,-0.0007,0.9048,0.0025,0.9117
14137,0.0486,-0.0012,0.9070,0.0011,0.9107
14157,0.0466,0.0002,0.9089,0.0007,0.9105
14177,0.0479,-0.0005,0.9097,0.0002,0.9106
14197,0.0461,-0.0010,0.9082,0.0006,0.9103
14217,0.0510,-0.0015,0.9155,0.0023,0.9123
14237,0.0469,0.0000,0.9077,0.0011,0.9113
14257,0.0486,0.0005,0.9094,0.0005,0.9111
14277,0.0498,0.0002,0.9126,0.0010,0.9120
14297,0.0469,0.0000,0.9109,0.0005,0.9120
14317,0.0474,0.0044,0.9089,0.0015,0.9114
14337,0.0522,-0.0015,0.9099,0.0015,0.9114
14357,0.0513,0.0012,0.9116,0.0008,0.9119
14377,0.0510,-0.0063,0.9048,0.0027,0.9102
14397,0.0481,-0.0020,0.9121,0.0012,0.9112
14417,0.0488,-0.0044,0.9102,0.0009,0.9113
14437,0.0474,0.0020,0.9102,0.0014,0.9113
14457,0.0491,-0.0034,0.9124,0.0010,0.9120
14477,0.0527,0.0010,0.9097,0.0015,0.9118
14497,0.0498,0.0007,0.9099,0.0005,0.9116
14517,0.0479,-0.0017,0.9094,0.0008,0.9113
14537,0.0486,-0.0007,0.9099,0.0002,0.9113
14557,0.0491,-0.0027,0.9109,0.0006,0.9116
14577,0.0500,-0.0034,0.9099,0.0007,0.9115
14597,0.0464,-0.0027,0.9094,0.0009,0.9112
14617,0.0449,-0.0017,0.9087,0.0011,0.9108
14637,0.0491,-0.0017,0.9102,0.0005,0.9110
14657,0.0491,-0.0015,0.9104,0.0004,0.9112
14677,0.0515,-0.0037,0.9106,0.0011,0.9115
14697,0.0503,-0.0029,0.9058,0.0014,0.9102
14717,0.0508,0.0005,0.9124,0.0014,0.9113
14737,0.0491,-0.0017,0.9119,0.0006,0.9118
14757,0.0505,-0.0044,0.9087,0.0010,0.9113
14777,0.0493,-0.0002,0.9092,0.0007,0.9111
14797,0.0518,0.0012,0.9072,0.0013,0.9104
14817,0.0469,-0.0027,0.9094,0.0012,0.9104
14837,0.0488,-0.0020,0.9094,0.0002,0.9105
14857,0.0503,-0.0005,0.9106,0.0006,0.9110
14877,0.0503,-0.0022,0.9060,0.0011,0.9099
14897,0.0496,-0.0042,0.9109,0.0011,0.9106
14917,0.0505,0.0042,0.9092,0.0020,0.9106
14937,0.0471,-0.0032,0.9089,0.0012,0.9105
14957,0.0486,-0.0010,0.9097,0.0002,0.9106
14977,0.0525,-0.0017,0.9092,0.0011,0.9106
14997,0.0498,-0.0007,0.9087,0.0003,0.9105
15017,0.0474,0.0037,0.9104,0.0017,0.9108
15037,0.0479,-0.0005,0.9072,0.0008,0.9101
15057,0.0522,0.0029,0.9077,0.0014,0.9098
15077,0.0535,0.0017,0.9060,0.0013,0.9092
15097,0.0449,-0.0010,0.9124,0.0024,0.9104
15117,0.0496,-0.0027,0.9131,0.0015,0.9116
15137,0.0483,-0.0017,0.9094,0.0005,0.9114
15157,0.0532,-0.0037,0.9106,0.0015,0.9116
15177,0.0500,-0.0037,0.9092,0.0007,0.9113
15197,0.0503,-0.0002,0.9109,0.0007,0.9116
15217,0.0508,-0.0017,0.9094,0.0003,0.9114
15237,0.0476,-0.0002,0.9102,0.0009,0.9114
15257,0.0476,-0.0002,0.9138,0.0013,0.9125
15277,0.0540,-0.0034,0.9082,0.0019,0.9117
15297,0.0469,0.0010,0.9084,0.0014,0.9111
15317,0.0466,-0.0002,0.9124,0.0012,0.9118
15337,0.0515,-0.0017,0.9065,0.0015,0.9107
15357,0.0474,-0.0032,0.9089,0.0009,0.9105
15377,0.0503,-0.0037,0.9109,0.0009,0.9110
15397,0.0464,-0.0020,0.9082,0.0010,0.9105
15417,0.0496,-0.0012,0.9028,0.0020,0.9086
15437,0.0498,-0.0015,0.9121,0.0015,0.9101
15457,0.0479,-0.0010,0.9070,0.0007,0.9095
15477,0.0520,-0.0054,0.9094,0.0016,0.9099
15497,0.0503,-0.0010,0.9092,0.0006,0.9101
15517,0.0498,0.0010,0.9119,0.0013,0.9111
15537,0.0508,0.0012,0.9102,0.0008,0.9112
15557,0.0508,0.0012,0.9109,0.0006,0.9115
15577,0.0498,0.0029,0.9119,0.0010,0.9120
15597,0.0491,-0.0010,0.9124,0.0008,0.9125
15617,0.0481,-0.0024,0.9089,0.0012,0.9118
15637,0.0444,0.0017,0.9143,0.0020,0.9129
15657,0.0493,-0.0029,0.9104,0.0011,0.9125
15677,0.0515,-0.0042,0.9060,0.0021,0.9110
15697,0.0471,0.0007,0.9119,0.0012,0.9116
15717,0.0491,-0.0029,0.9109,0.0006,0.9118
15737,0.0486,-0.0020,0.9158,0.0016,0.9134
15757,0.0471,-0.0005,0.9158,0.0013,0.9145
15777,0.0491,-0.0032,0.9050,0.0025,0.9120
15797,0.0525,0.0002,0.9089,0.0015,0.9116
15817,0.0471,-0.0012,0.9126,0.0011,0.9122
15837,0.0513,-0.0022,0.9102,0.0008,0.9120
15857,0.0510,-0.0017,0.9075,0.0011,0.9111
15877,0.0498,-0.0032,0.9055,0.0014,0.9098
15897,0.0520,-0.0037,0.9111,0.0011,0.9107
15917,0.0486,0.0002,0.9077,0.0011,0.9102
15937,0.0500,-0.0002,0.9114,0.0009,0.9109
15957,0.0461,-0.0056,0.9148,0.0023,0.9125
15977,0.0493,-0.0037,0.9109,0.0004,0.9124
15997,0.0522,-0.0015,0.9087,0.0013,0.9117
16017,0.0464,-0.0059,0.9148,0.0020,0.9130
16037,0.0508,-0.0020,0.9102,0.0009,0.9126
16057,0.0522,-0.0049,0.9080,0.0014,0.9116
16077,0.0491,-0.0044,0.9126,0.0008,0.9123
16097,0.0513,-0.0046,0.8997,0.0034,0.9090
16117,0.0474,-0.0054,0.9094,0.0011,0.9095
16137,0.0476,-0.0005,0.9099,0.0014,0.9100
16157,0.0493,-0.0024,0.9104,0.0006,0.9105
16177,0.0498,-0.0010,0.9099,0.0007,0.9107
16197,0.0496,-0.0005,0.9097,0.0006,0.9108
16217,0.0486,-0.0039,0.9102,0.0007,0.9110
16237,0.0449,0.0000,0.9094,0.0015,0.9109
16257,0.0498,-0.0015,0.9102,0.0006,0.9111
16277,0.0469,0.0044,0.9097,0.0019,0.9110
16297,0.0520,-0.0056,0.9063,0.0024,0.9100
16317,0.0464,0.0042,0.9087,0.0019,0.9100
16337,0.0510,-0.0037,0.9097,0.0014,0.9103
16357,0.0488,0.0005,0.9055,0.0011,0.9093
16377,0.0486,-0.0029,0.9128,0.0016,0.9107
16397,0.0505,0.0020,0.9143,0.0018,0.9122
16417,0.0491,-0.0081,0.9055,0.0028,0.9106
16437,0.0471,-0.0010,0.9131,0.0014,0.9117
16457,0.0508,-0.0066,0.9114,0.0015,0.9120
16477,0.0540,-0.0012,0.9045,0.0024,0.9103
16497,0.0461,-0.0020,0.9060,0.0016,0.9093
16517,0.0479,-0.0039,0.9077,0.0006,0.9092
16537,0.0466,-0.0017,0.9065,0.0009,0.9088
16557,0.0469,-0.0007,0.9114,0.0014,0.9099
16577,0.0493,-0.0024,0.9087,0.0005,0.9099
16597,0.0500,-0.0015,0.9077,0.0006,0.9097
16617,0.0479,-0.0022,0.9048,0.0011,0.9086
16637,0.0503,-0.0005,0.9045,0.0011,0.9078
16657,0.0479,-0.0020,0.9111,0.0014,0.9092
16677,0.0510,-0.0022,0.9089,0.0008,0.9095
16697,0.0552,-0.0010,0.9128,0.0022,0.9110
16717,0.0486,-0.0039,0.9116,0.0012,0.9116
16737,0.0459,0.0017,0.9141,0.0021,0.9127
16757,0.0493,0.0015,0.9067,0.0016,0.9113
16777,0.0491,-0.0012,0.9077,0.0007,0.9106
16797,0.0488,-0.0002,0.9133,0.0012,0.9118
16817,0.0513,-0.0039,0.9021,0.0028,0.9093
16837,0.0444,-0.0007,0.9097,0.0017,0.9098
16857,0.0508,-0.0032,0.9084,0.0010,0.9098
16877,0.0498,-0.0015,0.9126,0.0013,0.9110
16897,0.0510,-0.0032,0.9087,0.0008,0.9108
16917,0.0483,0.0007,0.9065,0.0013,0.9099
16937,0.0471,-0.0042,0.9058,0.0014,0.9090
16957,0.0488,0.0005,0.9084,0.0008,0.9092
16977,0.0459,-0.0007,0.9082,0.0009,0.9093
16997,0.0491,0.0002,0.9063,0.0008,0.9088
17017,0.0540,-0.0037,0.9099,0.0021,0.9096
17037,0.0530,-0.0017,0.9150,0.0022,0.9117
17057,0.0520,-0.0012,0.9099,0.0004,0.9116
17077,0.0471,0.0022,0.9114,0.0017,0.9119
17097,0.0481,0.0027,0.9087,0.0012,0.9113
17117,0.0520,-0.0015,0.9082,0.0011,0.9108
17137,0.0503,-0.0020,0.9128,0.0012,0.9118
17157,0.0488,-0.0010,0.9141,0.0012,0.9129
17177,0.0510,-0.0037,0.9089,0.0012,0.9121
17197,0.0505,-0.0024,0.9097,0.0004,0.9118
17217,0.0447,0.0010,0.9111,0.0019,0.9119
17237,0.0503,-0.0015,0.9080,0.0010,0.9112
17257,0.0464,-0.0051,0.9124,0.0016,0.9119
17277,0.0496,-0.0015,0.9124,0.0007,0.9124
17297,0.0530,0.0010,0.9106,0.0016,0.9123
17317,0.0486,-0.0002,0.9165,0.0017,0.9140
17337,0.0532,-0.0012,0.9109,0.0012,0.9135
17357,0.0457,-0.0032,0.9087,0.0019,0.9124
17377,0.0483,-0.0029,0.9131,0.0008,0.9130
17397,0.0483,-0.0039,0.9131,0.0007,0.9134
17417,0.0500,-0.0007,0.9089,0.0012,0.9125
17437,0.0510,-0.0020,0.9053,0.0019,0.9107
17457,0.0466,-0.0007,0.9111,0.0011,0.9112
17477,0.0515,-0.0007,0.9082,0.0010,0.9108
17497,0.0518,-0.0020,0.9119,0.0010,0.9115
17517,0.0486,-0.0029,0.9028,0.0023,0.9093
17537,0.0505,-0.0012,0.9128,0.0015,0.9108
17557,0.0464,-0.0022,0.9104,0.0011,0.9110
17577,0.0513,-0.0024,0.9114,0.0009,0.9116
17597,0.0457,-0.0024,0.9104,0.0012,0.9116
17617,0.0469,-0.0020,0.9072,0.0010,0.9106
17637,0.0508,-0.0073,0.9102,0.0018,0.9109
17657,0.0513,-0.0012,0.9116,0.0012,0.9116
17677,0.0464,-0.0010,0.9121,0.0013,0.9121
17697,0.0449,-0.0063,0.9131,0.0018,0.9127
17717,0.0488,0.0024,0.9121,0.0019,0.9129
17737,0.0459,-0.0039,0.9084,0.0013,0.9119
17757,0.0486,-0.0034,0.9075,0.0011,0.9110
17777,0.0513,-0.0061,0.9072,0.0017,0.9103
17797,0.0471,-0.0029,0.9077,0.0007,0.9099
17817,0.0459,-0.0049,0.9109,0.0011,0.9105
17837,0.0515,-0.0039,0.9114,0.0013,0.9112
17857,0.0503,-0.0020,0.9050,0.0016,0.9098
17877,0.0488,-0.0005,0.9126,0.0015,0.9110
17897,0.0486,-0.0044,0.9063,0.0012,0.9100
17917,0.0491,0.0017,0.9106,0.0015,0.9106
17937,0.0471,-0.0005,0.9092,0.0007,0.9105
17957,0.0493,-0.0027,0.9089,0.0005,0.9104
17977,0.0505,-0.0029,0.9014,0.0024,0.9081
17997,0.0532,-0.0024,0.9087,0.0013,0.9088
18017,0.0483,-0.0027,0.9094,0.0009,0.9094
18037,0.0481,0.0005,0.9124,0.0016,0.9106
18057,0.0557,-0.0010,0.9106,0.0020,0.9111
18077,0.0483,0.0015,0.9097,0.0012,0.9111
18097,0.0483,-0.0017,0.9106,0.0008,0.9113
18117,0.0493,-0.0029,0.9141,0.0014,0.9126
18137,0.0466,0.0049,0.9143,0.0023,0.9134
18157,0.0486,0.0007,0.9116,0.0002,0.9133
18177,0.0520,0.0020,0.9119,0.0011,0.9133
18197,0.0520,-0.0046,0.9060,0.0025,0.9116
18217,0.0491,-0.0051,0.9063,0.0018,0.9104
18237,0.0486,-0.0017,0.9089,0.0004,0.9103
18257,0.0488,0.0010,0.9124,0.0014,0.9113
18277,0.0488,0.0017,0.9109,0.0009,0.9116
18297,0.0493,-0.0010,0.9063,0.0012,0.9104
18317,0.0488,-0.0044,0.9131,0.0017,0.9116
18337,0.0503,-0.0024,0.9082,0.0008,0.9110
18357,0.0515,0.0017,0.9087,0.0013,0.9107
18377,0.0471,-0.0010,0.9097,0.0009,0.9108
18397,0.0557,-0.0022,0.9180,0.0032,0.9134
18417,0.0471,-0.0012,0.9070,0.0019,0.9119
18437,0.0491,0.0005,0.9087,0.0008,0.9113
18457,0.0535,-0.0029,0.9102,0.0013,0.9114
18477,0.0479,0.0037,0.9121,0.0019,0.9120
18497,0.0535,-0.0005,0.9121,0.0012,0.9125
18517,0.0515,-0.0002,0.9055,0.0017,0.9109
18537,0.0476,-0.0022,0.9121,0.0015,0.9116
18557,0.0496,-0.0002,0.9175,0.0022,0.9138
18577,0.0483,0.0027,0.9060,0.0022,0.9118
18597,0.0444,0.0000,0.9158,0.0022,0.9133
18617,0.0449,-0.0022,0.9131,0.0012,0.9136
18637,0.0503,-0.0015,0.9053,0.0024,0.9115
18657,0.0488,-0.0007,0.9087,0.0005,0.9111
18677,0.0520,0.0032,0.9146,0.0022,0.9125
18697,0.0474,0.0010,0.9094,0.0008,0.9120
18717,0.0481,-0.0005,0.9084,0.0008,0.9113
18737,0.0518,0.0010,0.9141,0.0016,0.9126
18757,0.0513,-0.0056,0.9075,0.0022,0.9115
18777,0.0479,-0.0024,0.9106,0.0008,0.9116
18797,0.0491,0.0002,0.9116,0.0007,0.9120
18817,0.0483,-0.0007,0.9177,0.0021,0.9141
18837,0.0513,-0.0005,0.9102,0.0011,0.9133
18857,0.0464,-0.0012,0.9131,0.0010,0.9136
18877,0.0476,-0.0015,0.9124,0.0004,0.9136
18897,0.0491,0.0027,0.9163,0.0017,0.9148
18917,0.0483,-0.0007,0.9092,0.0013,0.9135
18937,0.0522,-0.0012,0.9153,0.0015,0.9145
18957,0.0488,0.0010,0.9087,0.0014,0.9131
18977,0.0505,-0.0034,0.9089,0.0014,0.9123
18997,0.0479,-0.0032,0.9109,0.0008,0.9123
19017,0.0496,0.0015,0.9053,0.0019,0.9106
19037,0.0503,-0.0027,0.9092,0.0007,0.9106
19057,0.0508,-0.0012,0.9097,0.0004,0.9107
19077,0.0496,-0.0037,0.9089,0.0007,0.9106
19097,0.0476,0.0007,0.9114,0.0012,0.9112
19117,0.0447,-0.0017,0.9172,0.0026,0.9133
19137,0.0522,-0.0010,0.9111,0.0014,0.9131
19157,0.0496,-0.0034,0.9138,0.0009,0.9137
19177,0.0498,-0.0029,0.9111,0.0005,0.9134
19197,0.0498,-0.0042,0.9092,0.0010,0.9125
19217,0.0513,-0.0027,0.9111,0.0005,0.9125
19237,0.0476,-0.0032,0.9138,0.0011,0.9133
19257,0.0474,-0.0015,0.9097,0.0010,0.9126
19277,0.0461,-0.0002,0.9070,0.0016,0.9112
19297,0.0454,0.0005,0.9087,0.0011,0.9108
19317,0.0513,-0.0024,0.9084,0.0013,0.9105
19337,0.0461,0.0000,0.9131,0.0014,0.9117
19357,0.0476,0.0037,0.9065,0.0018,0.9105
19377,0.0513,-0.0010,0.9092,0.0011,0.9105
19397,0.0510,-0.0024,0.9077,0.0011,0.9101
19417,0.0479,-0.0046,0.9104,0.0013,0.9106
19437,0.0493,-0.0010,0.9084,0.0004,0.9103
19457,0.0505,-0.0002,0.9114,0.0009,0.9111
19477,0.0513,0.0039,0.9082,0.0017,0.9106
19497,0.0513,-0.0037,0.9092,0.0012,0.9106
19517,0.0474,0.0007,0.9121,0.0013,0.9114
19537,0.0481,-0.0012,0.9058,0.0014,0.9101
19557,0.0491,-0.0007,0.9119,0.0009,0.9110
19577,0.0493,0.0029,0.9119,0.0013,0.9117
19597,0.0500,-0.0081,0.9099,0.0026,0.9116
19617,0.0483,-0.0012,0.9141,0.0012,0.9127
19637,0.0515,0.0002,0.9111,0.0010,0.9127
19657,0.0481,-0.0007,0.9124,0.0006,0.9130
19677,0.0535,-0.0002,0.9080,0.0017,0.9119
19697,0.0525,0.0032,0.9082,0.0015,0.9113
19717,0.0481,-0.0010,0.9072,0.0013,0.9104
19737,0.0488,-0.0034,0.9124,0.0015,0.9114
19757,0.0508,0.0022,0.9089,0.0011,0.9111
19777,0.0515,-0.0032,0.9133,0.0015,0.9122
19797,0.0486,-0.0022,0.9126,0.0009,0.9127
19817,0.0508,-0.0027,0.9072,0.0013,0.9115
19837,0.0491,-0.0017,0.9133,0.0010,0.9124
19857,0.0488,-0.0049,0.9114,0.0010,0.9125
19877,0.0503,0.0024,0.9160,0.0021,0.9140
19897,0.0500,-0.0005,0.9080,0.0014,0.9126
19917,0.0466,-0.0049,0.9114,0.0015,0.9126
19937,0.0452,0.0024,0.9148,0.0021,0.9136
19957,0.0476,-0.0024,0.9094,0.0010,0.9127
19977,0.0439,0.0000,0.9128,0.0013,0.9131
19997,0.0513,-0.0012,0.9104,0.0015,0.9127
20017,0.0454,0.0007,0.9131,0.0011,0.9131
20037,0.0491,-0.0010,0.9143,0.0009,0.9139
20057,0.0496,-0.0032,0.9148,0.0011,0.9146
20077,0.0491,-0.0037,0.9099,0.0012,0.9136
20097,0.0513,0.0022,0.9121,0.0015,0.9136
20117,0.0498,0.0000,0.9072,0.0015,0.9121
20137,0.0510,0.0007,0.9070,0.0013,0.9110
20157,0.0508,0.0005,0.9097,0.0003,0.9110
20177,0.0481,-0.0054,0.9109,0.0018,0.9114
20197,0.0493,-0.0029,0.9082,0.0007,0.9108
20217,0.0513,-0.0039,0.9124,0.0012,0.9117
20237,0.0481,-0.0037,0.9102,0.0007,0.9116
20257,0.0481,-0.0073,0.9106,0.0014,0.9117
20277,0.0496,-0.0046,0.9143,0.0012,0.9129
20297,0.0500,-0.0020,0.9199,0.0026,0.9154
20317,0.0515,0.0020,0.9104,0.0021,0.9143
20337,0.0483,-0.0078,0.9087,0.0022,0.9130
20357,0.0488,-0.0024,0.9165,0.0015,0.9145
20377,0.0479,-0.0024,0.9072,0.0018,0.9127
20397,0.0469,-0.0029,0.9072,0.0014,0.9114
20417,0.0535,0.0005,0.9084,0.0019,0.9110
20437,0.0486,0.0029,0.9136,0.0019,0.9121
20457,0.0437,-0.0044,0.9087,0.0022,0.9114
20477,0.0483,-0.0015,0.9126,0.0008,0.9122
20497,0.0498,-0.0010,0.9082,0.0010,0.9114
20517,0.0547,0.0017,0.9099,0.0021,0.9114
20537,0.0532,-0.0039,0.9089,0.0014,0.9111
20557,0.0505,0.0000,0.9089,0.0005,0.9109
20577,0.0508,0.0000,0.9109,0.0005,0.9113
20597,0.0508,-0.0020,0.9109,0.0005,0.9116
20617,0.0503,-0.0017,0.9133,0.0010,0.9125
20637,0.0496,-0.0007,0.9092,0.0007,0.9119
20657,0.0510,-0.0002,0.9104,0.0003,0.9119
20677,0.0505,-0.0015,0.9114,0.0003,0.9122
20697,0.0488,-0.0020,0.9165,0.0018,0.9139
20717,0.0493,-0.0046,0.9111,0.0011,0.9134
20737,0.0508,0.0002,0.9143,0.0011,0.9141
20757,0.0505,0.0010,0.9124,0.0008,0.9140
20777,0.0518,-0.0005,0.9160,0.0011,0.9151
20797,0.0518,-0.0051,0.9106,0.0016,0.9142
20817,0.0525,-0.0012,0.9097,0.0011,0.9133
20837,0.0535,-0.0039,0.9055,0.0021,0.9114
20857,0.0508,-0.0042,0.9121,0.0009,0.9121
20877,0.0483,-0.0032,0.9099,0.0010,0.9118
20897,0.0493,0.0000,0.9119,0.0011,0.9122
20917,0.0491,-0.0029,0.9087,0.0008,0.9116
20937,0.0493,-0.0010,0.9119,0.0007,0.9120
20957,0.0515,0.0027,0.9097,0.0015,0.9118
20977,0.0559,-0.0012,0.9065,0.0021,0.9107
20997,0.0481,-0.0027,0.9094,0.0013,0.9107
21017,0.0493,-0.0034,0.9067,0.0011,0.9099
21037,0.0498,-0.0002,0.9138,0.0017,0.9115
21057,0.0513,0.0010,0.9138,0.0014,0.9126
21077,0.0481,-0.0015,0.9082,0.0012,0.9117
21097,0.0498,-0.0022,0.9146,0.0013,0.9129
21117,0.0493,-0.0022,0.9084,0.0010,0.9120
21137,0.0483,-0.0032,0.9106,0.0006,0.9120
21157,0.0515,-0.0037,0.9109,0.0008,0.9121
21177,0.0505,-0.0010,0.9089,0.0007,0.9116
21197,0.0493,-0.0029,0.9053,0.0015,0.9101
21217,0.0488,-0.0007,0.9150,0.0020,0.9120
21237,0.0503,-0.0042,0.9084,0.0010,0.9113
21257,0.0513,0.0002,0.9126,0.0012,0.9121
21277,0.0493,-0.0039,0.9099,0.0008,0.9119
21297,0.0449,0.0022,0.9026,0.0031,0.9094
21317,0.0476,-0.0022,0.9131,0.0016,0.9109
21337,0.0488,0.0039,0.9058,0.0020,0.9097
21357,0.0515,-0.0017,0.9128,0.0017,0.9111
21377,0.0513,-0.0044,0.9058,0.0018,0.9099
21397,0.0537,-0.0012,0.9136,0.0019,0.9115
21417,0.0471,-0.0032,0.9116,0.0014,0.9119
21437,0.0481,-0.0012,0.9104,0.0006,0.9118
21457,0.0532,-0.0068,0.9119,0.0020,0.9123
21477,0.0474,0.0029,0.9082,0.0022,0.9114
21497,0.0496,-0.0054,0.9092,0.0012,0.9112
21517,0.0498,-0.0032,0.9104,0.0003,0.9114
21537,0.0513,-0.0076,0.9067,0.0018,0.9104
21557,0.0447,-0.0005,0.9006,0.0032,0.9078
21577,0.0503,-0.0002,0.9094,0.0013,0.9087
21597,0.0520,-0.0005,0.9136,0.0021,0.9106
21617,0.0496,0.0024,0.9114,0.0014,0.9112
21637,0.0466,-0.0017,0.9116,0.0012,0.9117
21657,0.0491,-0.0012,0.9087,0.0005,0.9112
21677,0.0500,0.0000,0.9109,0.0005,0.9115
21697,0.0461,0.0012,0.9109,0.0011,0.9117
21717,0.0518,0.0005,0.9060,0.0017,0.9104
21737,0.0508,-0.0005,0.9097,0.0005,0.9106
21757,0.0486,-0.0012,0.9119,0.0009,0.9114
21777,0.0466,-0.0010,0.9072,0.0012,0.9105
21797,0.0483,0.0000,0.9133,0.0013,0.9117
21817,0.0481,-0.0042,0.9102,0.0011,0.9116
21837,0.0498,-0.0002,0.9109,0.0006,0.9118
21857,0.0537,-0.0017,0.9084,0.0016,0.9113
21877,0.0508,-0.0022,0.9102,0.0003,0.9114
21897,0.0493,-0.0037,0.9111,0.0008,0.9117
21917,0.0432,-0.0012,0.9128,0.0022,0.9123
21937,0.0471,-0.0020,0.9077,0.0010,0.9113
21957,0.0522,-0.0024,0.9097,0.0014,0.9113
21977,0.0503,-0.0012,0.9067,0.0011,0.9103
21997,0.0491,-0.0042,0.9097,0.0007,0.9105
22017,0.0464,0.0017,0.9089,0.0016,0.9104
22037,0.0491,-0.0022,0.9102,0.0005,0.9107
22057,0.0508,-0.0044,0.9136,0.0016,0.9120
22077,0.0510,-0.0022,0.9058,0.0016,0.9106
22097,0.0520,-0.0012,0.9138,0.0016,0.9120
22117,0.0483,-0.0034,0.9158,0.0017,0.9135
22137,0.0483,0.0027,0.9165,0.0021,0.9148
22157,0.0505,-0.0022,0.9119,0.0007,0.9143
22177,0.0476,-0.0037,0.9111,0.0011,0.9137
22197,0.0500,0.0017,0.9124,0.0011,0.9137
22217,0.0498,0.0020,0.9094,0.0012,0.9129
22237,0.0500,-0.0039,0.9031,0.0028,0.9103
22257,0.0500,0.0017,0.9119,0.0012,0.9112
22277,0.0493,-0.0027,0.9165,0.0021,0.9132
22297,0.0476,0.0007,0.9053,0.0021,0.9112
22317,0.0491,0.0007,0.9097,0.0004,0.9111
22337,0.0476,-0.0007,0.9106,0.0005,0.9114
22357,0.0498,-0.0029,0.9141,0.0015,0.9126
22377,0.0508,-0.0017,0.9121,0.0006,0.9129
22397,0.0498,-0.0020,0.9138,0.0007,0.9136
22417,0.0474,-0.0020,0.9087,0.0013,0.9125
22437,0.0498,-0.0015,0.9072,0.0012,0.9113
22457,0.0474,-0.0020,0.9097,0.0006,0.9112
22477,0.0530,-0.0017,0.9109,0.0013,0.9116
22497,0.0532,0.0029,0.9160,0.0024,0.9134
22517,0.0525,-0.0027,0.9097,0.0011,0.9127
22537,0.0510,-0.0046,0.9114,0.0011,0.9127
22557,0.0498,-0.0029,0.9109,0.0005,0.9126
22577,0.0469,-0.0051,0.9133,0.0016,0.9132
22597,0.0483,0.0012,0.9097,0.0015,0.9125
22617,0.0505,0.0000,0.9077,0.0012,0.9115
22637,0.0500,-0.0049,0.9067,0.0015,0.9105
22657,0.0527,-0.0015,0.9128,0.0015,0.9116
22677,0.0483,0.0024,0.9104,0.0015,0.9117
22697,0.0466,0.0005,0.9075,0.0014,0.9108
22717,0.0486,-0.0005,0.9111,0.0005,0.9113
22737,0.0510,-0.0027,0.9121,0.0011,0.9119
22757,0.0471,-0.0027,0.9114,0.0009,0.9121
22777,0.0491,-0.0044,0.9072,0.0014,0.9111
22797,0.0508,-0.0032,0.9167,0.0022,0.9132
22817,0.0498,-0.0039,0.9099,0.0007,0.9126
22837,0.0503,-0.0049,0.9119,0.0006,0.9128
22857,0.0474,-0.0010,0.9082,0.0014,0.9118
22877,0.0496,0.0002,0.9136,0.0013,0.9127
22897,0.0476,-0.0034,0.9097,0.0008,0.9122
22917,0.0508,-0.0037,0.9119,0.0008,0.9125
22937,0.0481,0.0002,0.9124,0.0010,0.9128
22957,0.0493,-0.0027,0.9065,0.0015,0.9113
22977,0.0491,-0.0027,0.9104,0.0002,0.9115
22997,0.0481,-0.0022,0.9121,0.0007,0.9120
23017,0.0508,-0.0015,0.9116,0.0007,0.9123
23037,0.0461,-0.0010,0.9097,0.0011,0.9119
23057,0.0466,-0.0024,0.9106,0.0006,0.9119
23077,0.0513,-0.0029,0.9067,0.0016,0.9108
23097,0.0503,-0.0029,0.9111,0.0007,0.9113
23117,0.0491,-0.0029,0.9099,0.0002,0.9113
23137,0.0481,-0.0059,0.9109,0.0011,0.9115
23157,0.0518,-0.0005,0.9106,0.0013,0.9117
23177,0.0486,-0.0005,0.9055,0.0016,0.9102
23197,0.0476,0.0022,0.9089,0.0014,0.9102
23217,0.0530,-0.0017,0.9063,0.0015,0.9095
23237,0.0542,-0.0002,0.9094,0.0013,0.9100
23257,0.0527,-0.0027,0.9109,0.0010,0.9107
23277,0.0549,0.0007,0.9094,0.0011,0.9108
23297,0.0522,-0.0005,0.9089,0.0002,0.9107
23317,0.0520,0.0024,0.9167,0.0025,0.9130
23337,0.0527,0.0000,0.9053,0.0019,0.9111
23357,0.0491,-0.0005,0.9119,0.0012,0.9117
23377,0.0505,-0.0020,0.9087,0.0008,0.9112
23397,0.0471,-0.0020,0.9063,0.0017,0.9101
23417,0.0496,0.0022,0.9070,0.0011,0.9096
23437,0.0481,-0.0027,0.9111,0.0013,0.9104
23457,0.0471,0.0024,0.9099,0.0012,0.9106
23477,0.0496,-0.0010,0.9097,0.0004,0.9107
23497,0.0518,0.0017,0.9111,0.0011,0.9113
23517,0.0510,-0.0022,0.9092,0.0009,0.9111
23537,0.0498,-0.0012,0.9121,0.0008,0.9118
23557,0.0508,-0.0027,0.9106,0.0007,0.9119
23577,0.0500,0.0012,0.9160,0.0018,0.9135
23597,0.0483,-0.0044,0.9104,0.0014,0.9130
23617,0.0461,-0.0002,0.9109,0.0012,0.9127
23637,0.0488,-0.0068,0.9128,0.0017,0.9131
23657,0.0466,-0.0005,0.9128,0.0010,0.9134
23677,0.0488,-0.0024,0.9104,0.0006,0.9129
23697,0.0510,-0.0034,0.9065,0.0018,0.9114
23717,0.0508,0.0015,0.9053,0.0020,0.9100
23737,0.0510,-0.0024,0.9131,0.0014,0.9113
23757,0.0498,-0.0007,0.9153,0.0016,0.9129
23777,0.0500,-0.0044,0.9114,0.0009,0.9129
23797,0.0498,-0.0015,0.9084,0.0010,0.9120
23817,0.0522,-0.0017,0.9111,0.0007,0.9122
23837,0.0479,-0.0015,0.9087,0.0010,0.9115
23857,0.0515,-0.0049,0.9128,0.0013,0.9123
23877,0.0510,-0.0022,0.9148,0.0012,0.9135
23897,0.0525,-0.0010,0.9155,0.0013,0.9146
23917,0.0503,0.0000,0.9131,0.0007,0.9145
23937,0.0508,0.0007,0.9045,0.0027,0.9120
23957,0.0505,0.0012,0.9124,0.0008,0.9125
23977,0.0542,-0.0015,0.9119,0.0011,0.9128
23997,0.0518,-0.0005,0.9153,0.0012,0.9140
24017,0.0481,-0.0034,0.9126,0.0014,0.9139
24037,0.0488,0.0022,0.9099,0.0014,0.9131
24057,0.0479,-0.0005,0.9126,0.0007,0.9133
24077,0.0496,-0.0049,0.9084,0.0017,0.9123
24097,0.0500,-0.0032,0.9077,0.0011,0.9113
24117,0.0549,-0.0051,0.9089,0.0018,0.9111
24137,0.0505,-0.0027,0.9097,0.0002,0.9111
24157,0.0518,-0.0015,0.9072,0.0009,0.9104
24177,0.0500,0.0027,0.9084,0.0016,0.9102
24197,0.0491,0.0002,0.9119,0.0011,0.9111
24217,0.0479,-0.0049,0.9067,0.0017,0.9102
24237,0.0522,-0.0005,0.9080,0.0009,0.9100
24257,0.0505,0.0010,0.9104,0.0009,0.9105
24277,0.0481,0.0010,0.9077,0.0010,0.9101
24297,0.0505,0.0010,0.9087,0.0004,0.9101
24317,0.0513,0.0002,0.9136,0.0015,0.9115
24337,0.0481,-0.0054,0.9087,0.0018,0.9111
24357,0.0493,-0.0012,0.9153,0.0017,0.9127
24377,0.0486,-0.0015,0.9102,0.0005,0.9124
24397,0.0493,-0.0039,0.9094,0.0009,0.9119
24417,0.0503,-0.0007,0.9097,0.0006,0.9116
24437,0.0510,-0.0024,0.9199,0.0029,0.9145
24457,0.0481,0.0027,0.9082,0.0021,0.9130
24477,0.0547,0.0015,0.9106,0.0017,0.9128
24497,0.0515,-0.0044,0.9097,0.0014,0.9123
24517,0.0515,-0.0015,0.9092,0.0005,0.9118
24537,0.0471,0.0010,0.9126,0.0016,0.9124
24557,0.0522,-0.0022,0.9063,0.0016,0.9110
24577,0.0488,-0.0005,0.9150,0.0017,0.9126
24597,0.0503,0.0022,0.9102,0.0010,0.9123
24617,0.0510,-0.0049,0.9094,0.0016,0.9119
24637,0.0496,-0.0012,0.9094,0.0004,0.9115
24657,0.0515,-0.0044,0.9102,0.0010,0.9116
24677,0.0491,0.0005,0.9045,0.0019,0.9099
24697,0.0461,-0.0002,0.9028,0.0021,0.9081
24717,0.0461,-0.0054,0.9055,0.0016,0.9077
24737,0.0476,-0.0051,0.9070,0.0009,0.9078
24757,0.0459,0.0022,0.9080,0.0018,0.9082
24777,0.0515,-0.0024,0.9087,0.0014,0.9088
24797,0.0493,-0.0020,0.9084,0.0004,0.9091
24817,0.0500,-0.0002,0.9094,0.0008,0.9096
24837,0.0498,-0.0007,0.9094,0.0004,0.9100
24857,0.0498,-0.0034,0.9065,0.0009,0.9093
24877,0.0544,0.0002,0.9126,0.0021,0.9108
24897,0.0503,-0.0005,0.9028,0.0020,0.9088
24917,0.0481,-0.0049,0.9097,0.0016,0.9095
24937,0.0459,-0.0034,0.9119,0.0017,0.9105
24957,0.0496,-0.0017,0.9165,0.0022,0.9127
24977,0.0500,0.0027,0.9119,0.0015,0.9129
24997,0.0488,-0.0034,0.9121,0.0008,0.9130
25017,0.0493,-0.0010,0.9058,0.0018,0.9113
25037,0.0513,-0.0037,0.9014,0.0027,0.9087
25057,0.0488,-0.0012,0.9075,0.0004,0.9087
25077,0.0522,-0.0007,0.9067,0.0009,0.9086
25097,0.0493,-0.0017,0.9189,0.0035,0.9121
25117,0.0508,-0.0037,0.9138,0.0011,0.9130
25137,0.0510,0.0000,0.9102,0.0008,0.9126
25157,0.0535,0.0020,0.9106,0.0014,0.9125
25177,0.0491,-0.0020,0.9114,0.0008,0.9125
25197,0.0500,-0.0022,0.9136,0.0008,0.9133
25217,0.0481,-0.0020,0.9114,0.0008,0.9131
25237,0.0515,0.0007,0.9104,0.0009,0.9127
25257,0.0491,-0.0007,0.9102,0.0005,0.9123
25277,0.0496,0.0007,0.9102,0.0005,0.9121
25297,0.0488,-0.0027,0.9094,0.0009,0.9117
25317,0.0535,0.0000,0.9109,0.0012,0.9119
25337,0.0537,-0.0029,0.9128,0.0013,0.9127
25357,0.0500,-0.0005,0.9143,0.0011,0.9136
25377,0.0525,-0.0020,0.9067,0.0017,0.9120
25397,0.0498,-0.0012,0.9097,0.0006,0.9117
25417,0.0488,-0.0007,0.9106,0.0007,0.9118
25437,0.0481,0.0027,0.9133,0.0016,0.9126
25457,0.0481,-0.0027,0.9077,0.0014,0.9115
25477,0.0503,-0.0024,0.9138,0.0012,0.9126
25497,0.0522,-0.0027,0.9080,0.0014,0.9117
25517,0.0493,-0.0020,0.9141,0.0012,0.9128
25537,0.0505,0.0002,0.9084,0.0011,0.9119
25557,0.0518,-0.0015,0.9131,0.0009,0.9127
25577,0.0476,-0.0005,0.9099,0.0010,0.9122
25597,0.0493,0.0010,0.9094,0.0008,0.9118
25617,0.0537,-0.0042,0.9141,0.0020,0.9129
25637,0.0486,-0.0002,0.9136,0.0010,0.9135
25657,0.0513,-0.0034,0.9084,0.0013,0.9124
25677,0.0471,0.0017,0.9070,0.0019,0.9112
25697,0.0493,-0.0037,0.9121,0.0011,0.9118
25717,0.0491,-0.0032,0.9104,0.0005,0.9118
25737,0.0479,-0.0027,0.9099,0.0005,0.9116
25757,0.0488,0.0027,0.9131,0.0017,0.9124
25777,0.0491,0.0020,0.9089,0.0011,0.9118
25797,0.0510,-0.0007,0.9089,0.0008,0.9114
25817,0.0503,-0.0007,0.9111,0.0004,0.9117
25837,0.0471,-0.0012,0.9141,0.0014,0.9128
25857,0.0500,-0.0022,0.9099,0.0007,0.9123
25877,0.0476,0.0002,0.9138,0.0011,0.9131
25897,0.0505,0.0012,0.9106,0.0009,0.9128
25917,0.0474,-0.0020,0.9128,0.0009,0.9132
25937,0.0503,-0.0024,0.9109,0.0008,0.9129
25957,0.0488,-0.0012,0.9109,0.0002,0.9127
25977,0.0503,-0.0020,0.9082,0.0010,0.9118
25997,0.0513,-0.0039,0.9109,0.0009,0.9119
26017,0.0491,-0.0017,0.9150,0.0014,0.9133
26037,0.0515,-0.0007,0.9131,0.0008,0.9136
26057,0.0486,-0.0005,0.9104,0.0008,0.9131
26077,0.0518,-0.0037,0.9094,0.0012,0.9124
26097,0.0500,0.0000,0.9111,0.0006,0.9124
26117,0.0522,-0.0029,0.9048,0.0020,0.9106
26137,0.0515,0.0017,0.9082,0.0011,0.9103
26157,0.0496,-0.0027,0.9116,0.0011,0.9111
26177,0.0532,-0.0005,0.9124,0.0011,0.9119
26197,0.0518,-0.0054,0.9080,0.0015,0.9112
26217,0.0505,-0.0017,0.9063,0.0011,0.9101
26237,0.0520,-0.0007,0.9092,0.0005,0.9103
26257,0.0486,-0.0012,0.9116,0.0012,0.9111
26277,0.0522,-0.0022,0.9077,0.0008,0.9105
26297,0.0496,0.0002,0.9114,0.0010,0.9112
26317,0.0510,-0.0020,0.9082,0.0005,0.9107
26337,0.0508,-0.0029,0.9075,0.0007,0.9102
26357,0.0525,-0.0027,0.9116,0.0010,0.9111
26377,0.0505,0.0005,0.9104,0.0008,0.9113
26397,0.0496,-0.0046,0.9092,0.0011,0.9111
26417,0.0525,-0.0017,0.9087,0.0007,0.9108
26437,0.0503,0.0010,0.9119,0.0012,0.9115
26457,0.0481,0.0037,0.9111,0.0017,0.9118
26477,0.0491,-0.0054,0.9106,0.0017,0.9118
26497,0.0486,-0.0005,0.9065,0.0013,0.9106
26517,0.0508,-0.0012,0.9084,0.0005,0.9104
26537,0.0474,0.0005,0.9109,0.0010,0.9109
26557,0.0508,0.0000,0.9109,0.0007,0.9113
26577,0.0498,-0.0029,0.9094,0.0008,0.9112
26597,0.0479,-0.0012,0.9099,0.0005,0.9112
26617,0.0530,-0.0039,0.9109,0.0014,0.9115
26637,0.0510,0.0017,0.9067,0.0015,0.9105
26657,0.0471,-0.0012,0.9124,0.0014,0.9114
26677,0.0488,-0.0056,0.9099,0.0014,0.9114
26697,0.0476,-0.0002,0.9082,0.0010,0.9108
26717,0.0471,-0.0061,0.9114,0.0015,0.9113
26737,0.0486,-0.0032,0.9094,0.0002,0.9112
26757,0.0510,-0.0059,0.9111,0.0012,0.9116
26777,0.0505,-0.0015,0.9089,0.0009,0.9112
26797,0.0505,-0.0020,0.9109,0.0006,0.9115
26817,0.0498,-0.0066,0.9041,0.0022,0.9097
26837,0.0503,0.0002,0.9075,0.0013,0.9095
26857,0.0518,-0.0039,0.9099,0.0008,0.9100
26877,0.0522,-0.0012,0.9077,0.0008,0.9098
26897,0.0518,-0.0024,0.9099,0.0005,0.9103
26917,0.0500,0.0002,0.9087,0.0009,0.9102
26937,0.0481,0.0005,0.9099,0.0011,0.9105
26957,0.0498,-0.0049,0.9070,0.0013,0.9099
26977,0.0474,-0.0012,0.9116,0.0013,0.9108
26997,0.0491,0.0022,0.9109,0.0013,0.9112
27017,0.0530,-0.0046,0.9099,0.0017,0.9113
27037,0.0442,-0.0007,0.9082,0.0019,0.9107
27057,0.0457,-0.0007,0.9094,0.0009,0.9106
27077,0.0476,-0.0024,0.9104,0.0005,0.9109
27097,0.0520,-0.0007,0.9109,0.0014,0.9114
27117,0.0488,-0.0022,0.9119,0.0006,0.9119
27137,0.0508,-0.0029,0.9128,0.0010,0.9126
27157,0.0496,0.0020,0.9111,0.0012,0.9126
27177,0.0479,-0.0044,0.9106,0.0012,0.9124
27197,0.0513,-0.0037,0.9114,0.0009,0.9125
27217,0.0530,0.0015,0.9102,0.0016,0.9123
27237,0.0481,-0.0005,0.9143,0.0013,0.9133
27257,0.0513,-0.0022,0.9148,0.0010,0.9141
27277,0.0493,0.0000,0.9111,0.0007,0.9136
27297,0.0496,-0.0022,0.9092,0.0010,0.9127
27317,0.0488,-0.0012,0.9102,0.0005,0.9123
27337,0.0483,-0.0027,0.9126,0.0007,0.9128
27357,0.0488,0.0007,0.9092,0.0010,0.9121
27377,0.0493,-0.0020,0.9070,0.0012,0.9110
27397,0.0515,0.0012,0.9067,0.0013,0.9101
27417,0.0493,-0.0029,0.9109,0.0010,0.9108
27437,0.0503,0.0002,0.9106,0.0006,0.9111
27457,0.0481,-0.0024,0.9158,0.0019,0.9129
27477,0.0479,-0.0032,0.9077,0.0014,0.9117
27497,0.0483,-0.0027,0.9109,0.0003,0.9119
27517,0.0486,-0.0020,0.9116,0.0003,0.9122
27537,0.0491,-0.0005,0.9126,0.0007,0.9127
27557,0.0469,-0.0022,0.9116,0.0006,0.9127
27577,0.0515,-0.0029,0.9041,0.0025,0.9106
27597,0.0488,0.0000,0.9114,0.0009,0.9112
27617,0.0505,-0.0017,0.9075,0.0008,0.9105
27637,0.0513,-0.0042,0.9148,0.0019,0.9122
27657,0.0488,0.0007,0.9033,0.0025,0.9099
27677,0.0515,-0.0093,0.9092,0.0024,0.9102
27697,0.0537,-0.0032,0.9131,0.0017,0.9115
27717,0.0505,0.0022,0.9097,0.0018,0.9114
27737,0.0500,-0.0017,0.9082,0.0006,0.9108
27757,0.0518,0.0027,0.9094,0.0014,0.9109
27777,0.0500,-0.0007,0.9072,0.0007,0.9102
27797,0.0481,0.0012,0.9143,0.0019,0.9118
27817,0.0486,-0.0005,0.9104,0.0004,0.9118
27837,0.0525,-0.0015,0.9099,0.0010,0.9117
27857,0.0491,0.0002,0.9070,0.0011,0.9107
27877,0.0520,-0.0020,0.9094,0.0008,0.9107
27897,0.0503,-0.0017,0.9114,0.0007,0.9113
27917,0.0464,-0.0007,0.9065,0.0016,0.9102
27937,0.0493,0.0012,0.9080,0.0007,0.9100
27957,0.0527,0.0002,0.9104,0.0012,0.9105
27977,0.0474,0.0002,0.9070,0.0011,0.9098
27997,0.0520,-0.0032,0.9099,0.0013,0.9103
28017,0.0457,-0.0017,0.9121,0.0017,0.9112
28037,0.0518,-0.0032,0.9092,0.0011,0.9110
28057,0.0513,-0.0054,0.9092,0.0012,0.9109
28077,0.0476,-0.0022,0.9111,0.0009,0.9114
28097,0.0530,0.0007,0.9099,0.0015,0.9114
28117,0.0481,-0.0005,0.9053,0.0016,0.9099
28137,0.0498,0.0017,0.9106,0.0011,0.9106
28157,0.0469,0.0000,0.9109,0.0010,0.9110
28177,0.0518,-0.0051,0.9067,0.0019,0.9102
28197,0.0518,0.0010,0.9063,0.0013,0.9094
28217,0.0493,-0.0010,0.9084,0.0003,0.9095
28237,0.0505,-0.0024,0.9143,0.0019,0.9114
28257,0.0491,-0.0007,0.9102,0.0004,0.9114
28277,0.0471,-0.0017,0.9102,0.0008,0.9114
28297,0.0469,-0.0020,0.9160,0.0019,0.9131
28317,0.0493,-0.0002,0.9077,0.0013,0.9119
28337,0.0498,-0.0039,0.9048,0.0020,0.9102
28357,0.0498,-0.0032,0.9097,0.0005,0.9104
28377,0.0469,-0.0022,0.9099,0.0008,0.9106
28397,0.0461,-0.0015,0.9063,0.0012,0.9097
28417,0.0532,-0.0005,0.9133,0.0022,0.9112
28437,0.0488,0.0010,0.9114,0.0009,0.9117
28457,0.0508,0.0010,0.9087,0.0009,0.9112
28477,0.0505,-0.0002,0.9109,0.0004,0.9115
28497,0.0493,-0.0037,0.9133,0.0014,0.9125
28517,0.0476,0.0000,0.9082,0.0012,0.9116
28537,0.0488,-0.0051,0.9045,0.0021,0.9099
28557,0.0479,-0.0017,0.9109,0.0008,0.9105
28577,0.0515,-0.0044,0.9131,0.0016,0.9117
28597,0.0508,0.0039,0.9148,0.0024,0.9131
28617,0.0471,-0.0027,0.9055,0.0021,0.9112
28637,0.0510,-0.0015,0.9104,0.0006,0.9114
28657,0.0491,-0.0012,0.9109,0.0003,0.9116
28677,0.0481,-0.0007,0.9150,0.0015,0.9130
28697,0.0469,-0.0029,0.9082,0.0014,0.9119
28717,0.0488,-0.0027,0.9048,0.0018,0.9102
28737,0.0505,-0.0005,0.9065,0.0010,0.9095
28757,0.0496,-0.0015,0.9175,0.0028,0.9123
28777,0.0520,-0.0054,0.9094,0.0015,0.9119
28797,0.0476,-0.0005,0.9111,0.0010,0.9120
28817,0.0508,-0.0034,0.9077,0.0011,0.9112
28837,0.0513,-0.0022,0.9119,0.0008,0.9118
28857,0.0496,-0.0002,0.9067,0.0013,0.9107
28877,0.0513,-0.0027,0.9111,0.0007,0.9113
28897,0.0508,0.0002,0.9114,0.0008,0.9117
28917,0.0486,-0.0024,0.9043,0.0019,0.9099
28937,0.0515,0.0005,0.9092,0.0008,0.9101
28957,0.0457,-0.0024,0.9119,0.0018,0.9110
28977,0.0491,-0.0024,0.9111,0.0005,0.9114
28997,0.0493,-0.0020,0.9124,0.0007,0.9121
29017,0.0537,-0.0044,0.9045,0.0025,0.9103
29037,0.0515,-0.0042,0.9084,0.0006,0.9102
29057,0.0493,-0.0027,0.9138,0.0016,0.9117
29077,0.0515,-0.0005,0.9104,0.0008,0.9117
29097,0.0513,-0.0002,0.9119,0.0008,0.9122
29117,0.0515,-0.0017,0.9080,0.0009,0.9114
29137,0.0510,-0.0037,0.9097,0.0006,0.9113
29157,0.0503,-0.0034,0.9102,0.0004,0.9114
29177,0.0486,-0.0022,0.9087,0.0008,0.9110
29197,0.0520,-0.0022,0.9097,0.0006,0.9110
29217,0.0466,0.0010,0.9065,0.0018,0.9100
29237,0.0510,-0.0020,0.9133,0.0015,0.9114
29257,0.0486,-0.0044,0.9114,0.0010,0.9118
29277,0.0510,-0.0010,0.9063,0.0014,0.9106
29297,0.0476,-0.0066,0.9053,0.0020,0.9094
29317,0.0503,-0.0039,0.9114,0.0011,0.9104
29337,0.0491,-0.0034,0.9053,0.0011,0.9093
29357,0.0503,0.0005,0.9072,0.0012,0.9091
29377,0.0479,-0.0032,0.9045,0.0011,0.9081
29397,0.0508,-0.0020,0.9106,0.0013,0.9093
29417,0.0525,-0.0022,0.9063,0.0010,0.9088
29437,0.0500,0.0007,0.9087,0.0010,0.9092
29457,0.0493,-0.0015,0.9119,0.0013,0.9104
29477,0.0513,-0.0068,0.9131,0.0021,0.9116
29497,0.0493,-0.0015,0.9087,0.0007,0.9112
29517,0.0481,-0.0022,0.9102,0.0006,0.9112
29537,0.0525,-0.0029,0.9136,0.0014,0.9124
29557,0.0542,-0.0029,0.9114,0.0012,0.9126
29577,0.0491,0.0005,0.9106,0.0012,0.9124
29597,0.0496,-0.0024,0.9075,0.0011,0.9113
29617,0.0527,0.0022,0.9121,0.0016,0.9120
29637,0.0493,-0.0005,0.9070,0.0012,0.9109
29657,0.0505,-0.0029,0.9077,0.0009,0.9104
29677,0.0498,-0.0034,0.9172,0.0026,0.9128
29697,0.0515,0.0000,0.9067,0.0016,0.9114
29717,0.0537,0.0007,0.9111,0.0012,0.9118
29737,0.0537,0.0029,0.9099,0.0013,0.9117
29757,0.0500,0.0012,0.9097,0.0007,0.9115
29777,0.0481,-0.0015,0.9182,0.0027,0.9139
29797,0.0508,-0.0007,0.9063,0.0019,0.9120
29817,0.0486,-0.0002,0.9119,0.0007,0.9124
29837,0.0466,-0.0020,0.9077,0.0015,0.9113
29857,0.0532,-0.0017,0.9128,0.0016,0.9122
29877,0.0510,-0.0022,0.9163,0.0017,0.9139
29897,0.0496,-0.0054,0.9099,0.0015,0.9131
29917,0.0503,-0.0007,0.9160,0.0014,0.9144
29937,0.0505,0.0010,0.9094,0.0014,0.9133
29957,0.0486,-0.0017,0.9102,0.0008,0.9128
29977,0.0535,-0.0005,0.9138,0.0013,0.9135
29997,0.0513,0.0005,0.9124,0.0005,0.9136
30017,0.0513,-0.0010,0.9053,0.0021,0.9115
30037,0.0515,0.0002,0.9080,0.0007,0.9109
30057,0.0496,0.0017,0.9065,0.0012,0.9100
30077,0.0520,-0.0046,0.9131,0.0020,0.9114
30097,0.0483,0.0015,0.9080,0.0013,0.9107
30117,0.0500,-0.0020,0.9119,0.0009,0.9115
30137,0.0515,0.0005,0.9124,0.0009,0.9122
30157,0.0518,-0.0027,0.9099,0.0008,0.9119
30177,0.0500,-0.0002,0.9119,0.0006,0.9123
30197,0.0505,-0.0010,0.9055,0.0016,0.9107
30217,0.0491,-0.0015,0.9077,0.0007,0.9102
30237,0.0493,-0.0015,0.9116,0.0009,0.9110
30257,0.0496,-0.0010,0.9072,0.0007,0.9103
30277,0.0491,-0.0017,0.9075,0.0005,0.9098
30297,0.0505,0.0042,0.9128,0.0021,0.9112
30317,0.0525,-0.0020,0.9070,0.0013,0.9104
30337,0.0510,-0.0032,0.9094,0.0009,0.9105
30357,0.0469,-0.0010,0.9102,0.0012,0.9108
30377,0.0498,0.0005,0.9094,0.0005,0.9108
30397,0.0540,-0.0022,0.9133,0.0018,0.9120
30417,0.0498,-0.0010,0.9094,0.0005,0.9116
30437,0.0496,0.0012,0.9102,0.0008,0.9116
30457,0.0503,-0.0012,0.9084,0.0006,0.9111
30477,0.0479,-0.0022,0.9111,0.0010,0.9115
30497,0.0515,0.0022,0.9041,0.0022,0.9097
30517,0.0493,-0.0027,0.9016,0.0022,0.9077
30537,0.0503,-0.0007,0.9104,0.0012,0.9089
30557,0.0505,-0.0039,0.9124,0.0017,0.9104
30577,0.0500,-0.0017,0.9094,0.0001,0.9105
30597,0.0540,-0.0046,0.9077,0.0015,0.9101
30617,0.0491,-0.0044,0.9131,0.0016,0.9114
30637,0.0498,0.0015,0.9043,0.0022,0.9097
30657,0.0486,0.0020,0.9026,0.0021,0.9080
30677,0.0520,0.0005,0.9075,0.0008,0.9083
30697,0.0537,0.0010,0.9131,0.0021,0.9102
30717,0.0530,0.0010,0.9060,0.0010,0.9094
30737,0.0488,-0.0007,0.9143,0.0022,0.9113
30757,0.0537,0.0010,0.9053,0.0016,0.9099
30777,0.0488,-0.0054,0.9104,0.0020,0.9105
30797,0.0483,-0.0039,0.9072,0.0012,0.9099
30817,0.0510,-0.0029,0.9128,0.0014,0.9112
30837,0.0500,-0.0017,0.9070,0.0009,0.9103
30857,0.0510,-0.0017,0.9106,0.0006,0.9109
30877,0.0505,-0.0017,0.9126,0.0009,0.9118
30897,0.0479,-0.0039,0.9121,0.0011,0.9123
30917,0.0486,-0.0034,0.9094,0.0006,0.9118
30937,0.0520,-0.0005,0.9055,0.0018,0.9104
30957,0.0537,-0.0015,0.9106,0.0012,0.9109
30977,0.0493,-0.0002,0.9070,0.0011,0.9101
30997,0.0500,0.0022,0.9097,0.0011,0.9104
31017,0.0513,-0.0002,0.9067,0.0007,0.9097
31037,0.0496,-0.0020,0.9087,0.0006,0.9098
31057,0.0508,-0.0042,0.9045,0.0015,0.9087
31077,0.0527,0.0010,0.9097,0.0013,0.9094
31097,0.0513,-0.0015,0.9097,0.0005,0.9099
31117,0.0532,-0.0010,0.9048,0.0013,0.9089
31137,0.0491,0.0000,0.9121,0.0017,0.9102
31157,0.0510,-0.0022,0.9094,0.0005,0.9104
31177,0.0515,-0.0002,0.9082,0.0004,0.9102
31197,0.0513,-0.0007,0.9094,0.0002,0.9104
31217,0.0522,-0.0022,0.9175,0.0026,0.9130
31237,0.0500,-0.0012,0.9080,0.0012,0.9119
31257,0.0552,-0.0007,0.9092,0.0013,0.9116
31277,0.0510,-0.0029,0.9109,0.0007,0.9118
31297,0.0513,-0.0022,0.9124,0.0007,0.9124
31317,0.0474,-0.0037,0.9155,0.0020,0.9137
31337,0.0498,-0.0032,0.9104,0.0006,0.9131
31357,0.0493,-0.0034,0.9128,0.0005,0.9134
31377,0.0513,0.0005,0.9031,0.0029,0.9108
31397,0.0527,-0.0015,0.9072,0.0010,0.9102
31417,0.0522,-0.0029,0.9072,0.0007,0.9097
31437,0.0479,0.0015,0.9136,0.0022,0.9113
31457,0.0513,0.0039,0.9185,0.0030,0.9138
31477,0.0520,-0.0010,0.9063,0.0020,0.9120
31497,0.0491,-0.0024,0.9131,0.0012,0.9127
31517,0.0491,-0.0015,0.9124,0.0006,0.9130
31537,0.0498,-0.0020,0.9114,0.0003,0.9129
31557,0.0471,0.0022,0.9106,0.0014,0.9126
31577,0.0522,-0.0020,0.9099,0.0012,0.9122
31597,0.0496,-0.0054,0.9089,0.0015,0.9117
31617,0.0457,-0.0046,0.9028,0.0027,0.9094
31637,0.0479,-0.0034,0.9146,0.0020,0.9113
31657,0.0537,-0.0037,0.9084,0.0017,0.9109
31677,0.0491,-0.0029,0.9111,0.0006,0.9114
31697,0.0483,-0.0002,0.9097,0.0010,0.9112
31717,0.0474,-0.0022,0.9070,0.0011,0.9103
31737,0.0508,0.0002,0.9104,0.0011,0.9108
31757,0.0505,0.0027,0.9077,0.0014,0.9103
31777,0.0520,-0.0020,0.9092,0.0009,0.9104
31797,0.0493,0.0000,0.9143,0.0016,0.9120
31817,0.0510,-0.0015,0.9067,0.0012,0.9108
31837,0.0505,-0.0034,0.9075,0.0010,0.9102
31857,0.0476,-0.0042,0.9114,0.0014,0.9110
31877,0.0525,0.0012,0.9136,0.0018,0.9122
31897,0.0493,-0.0017,0.9099,0.0004,0.9119
31917,0.0498,-0.0022,0.9111,0.0003,0.9121
31937,0.0508,-0.0056,0.9133,0.0014,0.9129
31957,0.0510,-0.0022,0.9160,0.0014,0.9143
31977,0.0500,-0.0007,0.9106,0.0009,0.9136
31997,0.0503,-0.0049,0.9133,0.0009,0.9139
32017,0.0505,0.0015,0.9063,0.0023,0.9120
32037,0.0532,0.0005,0.9189,0.0027,0.9146
32057,0.0508,-0.0017,0.9172,0.0013,0.9158
32077,0.0483,-0.0039,0.9119,0.0014,0.9150
32097,0.0513,-0.0017,0.9114,0.0007,0.9143
32117,0.0513,-0.0032,0.9109,0.0008,0.9137
32137,0.0513,0.0000,0.9109,0.0008,0.9133
32157,0.0500,0.0002,0.9163,0.0014,0.9146
32177,0.0542,-0.0024,0.9126,0.0012,0.9145
32197,0.0493,0.0020,0.9104,0.0015,0.9137
32217,0.0532,-0.0015,0.9092,0.0012,0.9128
32237,0.0503,-0.0037,0.9106,0.0010,0.9126
32257,0.0496,-0.0024,0.9124,0.0007,0.9129
32277,0.0483,-0.0029,0.9141,0.0011,0.9136
32297,0.0491,-0.0017,0.9131,0.0004,0.9139
32317,0.0449,-0.0020,0.9065,0.0023,0.9120
32337,0.0498,-0.0066,0.9146,0.0018,0.9132
32357,0.0547,-0.0054,0.9099,0.0020,0.9127
32377,0.0483,0.0029,0.9097,0.0022,0.9122
32397,0.0493,-0.0010,0.9099,0.0004,0.9119
32417,0.0493,-0.0002,0.9092,0.0006,0.9115
32437,0.0505,-0.0037,0.9128,0.0011,0.9123
32457,0.0496,-0.0002,0.9084,0.0009,0.9116
32477,0.0525,-0.0078,0.9111,0.0021,0.9119
32497,0.0513,-0.0002,0.9119,0.0010,0.9123
32517,0.0503,-0.0024,0.9075,0.0010,0.9113
32537,0.0515,0.0000,0.9102,0.0008,0.9114
32557,0.0481,-0.0039,0.9143,0.0017,0.9126
32577,0.0535,-0.0042,0.9102,0.0012,0.9124
32597,0.0513,-0.0037,0.9094,0.0005,0.9119
32617,0.0510,-0.0063,0.9111,0.0010,0.9121
32637,0.0493,-0.0017,0.9084,0.0011,0.9114
32657,0.0488,-0.0039,0.9131,0.0011,0.9123
32677,0.0486,-0.0061,0.9143,0.0013,0.9133
32697,0.0498,-0.0020,0.9114,0.0007,0.9131
32717,0.0498,-0.0002,0.9102,0.0011,0.9126
32737,0.0525,-0.0061,0.9155,0.0019,0.9140
32757,0.0491,-0.0042,0.9109,0.0007,0.9134
32777,0.0493,-0.0005,0.9131,0.0011,0.9137
32797,0.0498,-0.0049,0.9116,0.0007,0.9135
32817,0.0532,0.0002,0.9087,0.0018,0.9125
32837,0.0474,0.0022,0.9097,0.0018,0.9120
32857,0.0486,-0.0032,0.9070,0.0013,0.9109
32877,0.0515,-0.0049,0.9146,0.0019,0.9124
32897,0.0464,-0.0024,0.9077,0.0015,0.9114
32917,0.0500,-0.0017,0.9089,0.0005,0.9111
32937,0.0513,-0.0034,0.9148,0.0017,0.9126
32957,0.0518,-0.0015,0.9080,0.0012,0.9117
32977,0.0496,0.0005,0.9131,0.0012,0.9125
32997,0.0488,-0.0037,0.9087,0.0011,0.9117
33017,0.0532,-0.0044,0.9131,0.0015,0.9126
33037,0.0527,-0.0046,0.9119,0.0008,0.9128
33057,0.0515,-0.0015,0.9070,0.0014,0.9115
33077,0.0500,-0.0022,0.9099,0.0005,0.9115
33097,0.0513,-0.0049,0.9102,0.0007,0.9115
33117,0.0527,-0.0034,0.9053,0.0015,0.9101
33137,0.0532,-0.0022,0.9097,0.0007,0.9104
33157,0.0530,-0.0024,0.9094,0.0003,0.9106
33177,0.0454,-0.0032,0.9104,0.0021,0.9109
33197,0.0498,-0.0029,0.9099,0.0002,0.9110
33217,0.0525,-0.0017,0.9131,0.0013,0.9121
33237,0.0518,-0.0027,0.9053,0.0016,0.9105
33257,0.0483,0.0007,0.9121,0.0016,0.9113
33277,0.0483,-0.0022,0.9080,0.0009,0.9107
33297,0.0488,-0.0005,0.9114,0.0008,0.9113
33317,0.0522,0.0010,0.9126,0.0014,0.9121
33337,0.0513,-0.0032,0.9092,0.0009,0.9117
33357,0.0503,-0.0049,0.9187,0.0027,0.9142
33377,0.0500,-0.0027,0.9075,0.0016,0.9126
33397,0.0508,-0.0007,0.9114,0.0006,0.9127
33417,0.0505,0.0007,0.9165,0.0018,0.9142
33437,0.0483,-0.0027,0.9133,0.0008,0.9143
33457,0.0522,-0.0012,0.9158,0.0011,0.9152
33477,0.0542,-0.0022,0.9133,0.0011,0.9151
33497,0.0515,-0.0007,0.9075,0.0019,0.9133
33517,0.0522,-0.0029,0.9109,0.0006,0.9130
33537,0.0491,-0.0032,0.9133,0.0011,0.9135
33557,0.0520,-0.0017,0.9128,0.0004,0.9137
33577,0.0488,0.0000,0.9146,0.0012,0.9144
33597,0.0461,-0.0020,0.9146,0.0014,0.9148
33617,0.0513,-0.0005,0.9089,0.0015,0.9135
33637,0.0522,0.0005,0.9089,0.0013,0.9125
33657,0.0483,-0.0034,0.9092,0.0012,0.9119
33677,0.0471,0.0032,0.9087,0.0017,0.9113
33697,0.0518,-0.0063,0.9136,0.0023,0.9124
33717,0.0525,-0.0017,0.9053,0.0019,0.9107
33737,0.0549,0.0005,0.9099,0.0015,0.9110
33757,0.0486,-0.0032,0.9072,0.0014,0.9102
33777,0.0515,0.0007,0.9060,0.0011,0.9094
33797,0.0537,-0.0042,0.9080,0.0012,0.9095
33817,0.0488,-0.0029,0.9084,0.0010,0.9095
33837,0.0554,-0.0034,0.9072,0.0014,0.9094
33857,0.0508,0.0002,0.9104,0.0012,0.9101
33877,0.0493,-0.0015,0.9111,0.0011,0.9108
33897,0.0498,-0.0015,0.9087,0.0004,0.9106
33917,0.0518,0.0032,0.9016,0.0027,0.9083
33937,0.0496,-0.0022,0.9092,0.0010,0.9090
33957,0.0515,0.0012,0.9106,0.0011,0.9099
33977,0.0486,-0.0059,0.9114,0.0020,0.9107
33997,0.0522,-0.0002,0.9055,0.0014,0.9096
34017,0.0479,-0.0002,0.9072,0.0010,0.9093
34037,0.0469,-0.0056,0.9055,0.0018,0.9085
34057,0.0522,0.0005,0.9116,0.0019,0.9099
34077,0.0527,0.0007,0.9031,0.0020,0.9083
34097,0.0452,-0.0032,0.9099,0.0020,0.9091
34117,0.0471,0.0002,0.9109,0.0012,0.9100
34137,0.0474,-0.0029,0.9150,0.0020,0.9119
34157,0.0496,-0.0010,0.9111,0.0005,0.9121
34177,0.0493,0.0000,0.9089,0.0007,0.9115
34197,0.0498,-0.0051,0.9138,0.0017,0.9126
34217,0.0515,-0.0029,0.9102,0.0008,0.9123
34237,0.0508,-0.0049,0.9109,0.0008,0.9123
34257,0.0493,-0.0042,0.9128,0.0007,0.9129
34277,0.0515,-0.0005,0.9114,0.0010,0.9129
34297,0.0500,-0.0037,0.9104,0.0005,0.9125
34317,0.0513,-0.0029,0.9114,0.0003,0.9126
34337,0.0488,0.0017,0.9131,0.0016,0.9132
34357,0.0518,-0.0044,0.9058,0.0021,0.9114
34377,0.0500,0.0000,0.9084,0.0009,0.9109
34397,0.0530,-0.0015,0.9070,0.0011,0.9102
34417,0.0515,-0.0022,0.9102,0.0005,0.9106
34437,0.0457,-0.0015,0.9097,0.0017,0.9107
34457,0.0513,-0.0010,0.9109,0.0007,0.9112
34477,0.0461,-0.0005,0.9104,0.0012,0.9113
34497,0.0515,-0.0049,0.9121,0.0015,0.9120
34517,0.0527,-0.0034,0.9104,0.0010,0.9120
34537,0.0508,-0.0007,0.9077,0.0010,0.9111
34557,0.0491,-0.0010,0.9121,0.0009,0.9118
34577,0.0498,-0.0017,0.9087,0.0005,0.9113
34597,0.0513,-0.0024,0.9119,0.0007,0.9119
34617,0.0540,-0.0017,0.9053,0.0019,0.9104
34637,0.0518,-0.0032,0.9087,0.0004,0.9103
34657,0.0518,-0.0029,0.9087,0.0002,0.9103
34677,0.0496,0.0005,0.9109,0.0012,0.9109
34697,0.0488,-0.0027,0.9116,0.0010,0.9115
34717,0.0496,-0.0027,0.9119,0.0006,0.9120
34737,0.0527,0.0002,0.9136,0.0014,0.9129
34757,0.0505,-0.0029,0.9114,0.0005,0.9129
34777,0.0510,0.0029,0.9111,0.0014,0.9128
34797,0.0493,0.0022,0.9158,0.0016,0.9141
34817,0.0498,-0.0044,0.9084,0.0019,0.9128
34837,0.0500,0.0034,0.9124,0.0014,0.9131
34857,0.0513,-0.0024,0.9106,0.0009,0.9128
34877,0.0452,-0.0029,0.9114,0.0018,0.9127
34897,0.0510,-0.0015,0.9077,0.0013,0.9116
34917,0.0459,-0.0034,0.9080,0.0014,0.9109
34937,0.0488,-0.0024,0.9102,0.0003,0.9111
34957,0.0503,0.0020,0.9063,0.0017,0.9100
34977,0.0513,-0.0027,0.9131,0.0016,0.9114
34997,0.0479,-0.0039,0.9160,0.0020,0.9131
35017,0.0481,-0.0024,0.9077,0.0013,0.9119
35037,0.0474,-0.0039,0.9102,0.0007,0.9117
35057,0.0491,-0.0015,0.9048,0.0018,0.9101
35077,0.0498,-0.0005,0.9141,0.0017,0.9117
35097,0.0496,-0.0037,0.9082,0.0009,0.9110
35117,0.0496,0.0002,0.9080,0.0009,0.9105
35137,0.0503,-0.0020,0.9097,0.0004,0.9107
35157,0.0496,0.0010,0.9089,0.0008,0.9106
35177,0.0505,-0.0022,0.9143,0.0016,0.9121
35197,0.0469,0.0044,0.9126,0.0020,0.9126
35217,0.0525,-0.0005,0.9097,0.0012,0.9122
35237,0.0486,-0.0010,0.9128,0.0008,0.9128
35257,0.0469,-0.0034,0.9106,0.0013,0.9125
35277,0.0522,-0.0037,0.9114,0.0013,0.9126
35297,0.0486,-0.0010,0.9109,0.0005,0.9125
35317,0.0510,0.0007,0.9102,0.0009,0.9122
35337,0.0493,0.0010,0.9138,0.0011,0.9131
35357,0.0513,-0.0017,0.9072,0.0015,0.9118
35377,0.0479,-0.0034,0.9097,0.0011,0.9115
35397,0.0510,-0.0027,0.9114,0.0007,0.9119
35417,0.0547,-0.0010,0.9084,0.0016,0.9114
35437,0.0505,-0.0024,0.9063,0.0012,0.9102
35457,0.0532,0.0015,0.9121,0.0015,0.9113
35477,0.0500,-0.0020,0.9075,0.0009,0.9105
35497,0.0493,0.0005,0.9080,0.0008,0.9102
35517,0.0525,0.0015,0.9102,0.0009,0.9106
35537,0.0510,-0.0039,0.9111,0.0013,0.9112
35557,0.0537,-0.0039,0.9126,0.0014,0.9121
35577,0.0518,0.0022,0.9080,0.0015,0.9113
35597,0.0505,-0.0049,0.9141,0.0018,0.9125
35617,0.0491,-0.0037,0.9060,0.0018,0.9110
35637,0.0459,0.0005,0.9092,0.0017,0.9108
35657,0.0498,-0.0024,0.9109,0.0005,0.9112
35677,0.0471,-0.0022,0.9128,0.0011,0.9121
35697,0.0469,-0.0059,0.9106,0.0013,0.9120
35717,0.0481,-0.0015,0.9060,0.0015,0.9106
35737,0.0530,-0.0015,0.9116,0.0016,0.9114
35757,0.0476,0.0000,0.9121,0.0011,0.9120
35777,0.0488,0.0017,0.9070,0.0015,0.9109
35797,0.0510,-0.0056,0.9099,0.0016,0.9110
35817,0.0476,-0.0032,0.9087,0.0007,0.9107
35837,0.0522,-0.0005,0.9094,0.0011,0.9108
35857,0.0505,-0.0046,0.9148,0.0018,0.9124
35877,0.0503,-0.0024,0.9126,0.0005,0.9129
35897,0.0513,-0.0005,0.9097,0.0009,0.9123
35917,0.0508,-0.0002,0.9111,0.0005,0.9124
35937,0.0476,0.0012,0.9082,0.0015,0.9115
35957,0.0503,-0.0007,0.9097,0.0002,0.9114
35977,0.0525,-0.0010,0.9126,0.0011,0.9122
35997,0.0474,-0.0017,0.9111,0.0010,0.9122
36017,0.0488,-0.0059,0.9131,0.0016,0.9129
36037,0.0537,-0.0046,0.9094,0.0016,0.9123
36057,0.0476,-0.0010,0.9138,0.0014,0.9131
36077,0.0464,-0.0029,0.9084,0.0014,0.9121
36097,0.0466,-0.0010,0.9114,0.0008,0.9122
36117,0.0527,-0.0022,0.9038,0.0026,0.9102
36137,0.0493,-0.0051,0.9084,0.0009,0.9101
36157,0.0452,-0.0032,0.9104,0.0014,0.9105
36177,0.0508,-0.0010,0.9065,0.0013,0.9097
36197,0.0491,0.0017,0.9075,0.0013,0.9094
36217,0.0498,-0.0015,0.9104,0.0007,0.9101
36237,0.0535,0.0002,0.9102,0.0014,0.9106
36257,0.0500,-0.0007,0.9099,0.0003,0.9108
36277,0.0469,-0.0015,0.9126,0.0014,0.9117
36297,0.0493,-0.0022,0.9045,0.0018,0.9100
36317,0.0520,-0.0015,0.9121,0.0013,0.9111
36337,0.0498,0.0027,0.9167,0.0025,0.9132
36357,0.0491,-0.0005,0.9094,0.0008,0.9124
36377,0.0452,-0.0017,0.9146,0.0018,0.9134
36397,0.0549,-0.0054,0.9092,0.0026,0.9126
36417,0.0493,-0.0012,0.9124,0.0005,0.9129
36437,0.0515,0.0020,0.9148,0.0016,0.9139
36457,0.0500,-0.0046,0.9111,0.0013,0.9135
36477,0.0488,-0.0020,0.9067,0.0017,0.9119
36497,0.0493,0.0002,0.9087,0.0009,0.9113
36517,0.0466,-0.0012,0.9163,0.0021,0.9132
36537,0.0447,0.0007,0.9155,0.0018,0.9142
36557,0.0508,0.0017,0.9155,0.0014,0.9150
36577,0.0476,-0.0022,0.9116,0.0010,0.9144
36597,0.0491,-0.0022,0.9089,0.0014,0.9131
36617,0.0479,0.0007,0.9021,0.0030,0.9102
36637,0.0461,-0.0022,0.9163,0.0023,0.9124
36657,0.0500,-0.0046,0.9119,0.0013,0.9126
36677,0.0505,-0.0034,0.9075,0.0014,0.9115
36697,0.0476,0.0024,0.9060,0.0020,0.9102
36717,0.0491,0.0015,0.9104,0.0009,0.9107
36737,0.0474,0.0042,0.9114,0.0015,0.9113
36757,0.0503,0.0017,0.9087,0.0007,0.9109
36777,0.0498,0.0012,0.9114,0.0006,0.9115
36797,0.0493,-0.0017,0.9094,0.0009,0.9112
36817,0.0449,-0.0005,0.9092,0.0013,0.9110
36837,0.0461,0.0002,0.9114,0.0007,0.9114
36857,0.0459,-0.0005,0.9106,0.0005,0.9115
36877,0.0488,-0.0022,0.9058,0.0016,0.9102
36897,0.0479,-0.0020,0.9106,0.0006,0.9107
36917,0.0454,0.0034,0.9075,0.0016,0.9101
36937,0.0486,-0.0015,0.9065,0.0010,0.9094
36957,0.0469,0.0032,0.9133,0.0019,0.9109
36977,0.0454,-0.0022,0.9121,0.0013,0.9116
36997,0.0508,-0.0037,0.9050,0.0023,0.9101
37017,0.0474,-0.0034,0.9194,0.0033,0.9132
37037,0.0464,0.0005,0.9128,0.0009,0.9135
37057,0.0513,-0.0042,0.9072,0.0021,0.9120
37077,0.0530,-0.0044,0.9026,0.0029,0.9097
37097,0.0505,0.0002,0.9055,0.0012,0.9088
37117,0.0537,-0.0020,0.9080,0.0011,0.9091
37137,0.0549,0.0034,0.9082,0.0020,0.9093
37157,0.0503,0.0037,0.9150,0.0025,0.9114
37177,0.0491,-0.0034,0.9092,0.0015,0.9112
37197,0.0532,-0.0022,0.9094,0.0009,0.9111
37217,0.0493,-0.0054,0.9177,0.0029,0.9135
37237,0.0444,0.0020,0.9094,0.0025,0.9126
37257,0.0566,-0.0037,0.9175,0.0031,0.9146
37277,0.0527,0.0044,0.9136,0.0019,0.9147
37297,0.0439,-0.0002,0.9087,0.0027,0.9132
37317,0.0486,-0.0024,0.9104,0.0009,0.9128
37337,0.0520,0.0005,0.9131,0.0011,0.9133
37357,0.0461,-0.0027,0.9041,0.0027,0.9109
37377,0.0510,0.0002,0.9133,0.0014,0.9120
37397,0.0493,-0.0005,0.9109,0.0001,0.9121
37417,0.0476,0.0024,0.9116,0.0011,0.9123
37437,0.0486,-0.0027,0.9102,0.0009,0.9121
37457,0.0513,-0.0034,0.9065,0.0017,0.9108
37477,0.0518,-0.0012,0.9099,0.0007,0.9110
37497,0.0491,-0.0010,0.9155,0.0018,0.9127
37517,0.0498,0.0020,0.9077,0.0015,0.9116
37537,0.0488,0.0017,0.9121,0.0009,0.9122
37557,0.0508,0.0022,0.9119,0.0007,0.9125
37577,0.0493,-0.0015,0.9109,0.0007,0.9124
37597,0.0518,-0.0046,0.9143,0.0018,0.9134
37617,0.0459,-0.0012,0.9063,0.0022,0.9116
37637,0.0474,0.0005,0.9121,0.0009,0.9121
37657,0.0486,-0.0015,0.9065,0.0013,0.9108
37677,0.0498,0.0007,0.9094,0.0006,0.9108
37697,0.0459,-0.0022,0.9106,0.0011,0.9111
37717,0.0483,0.0049,0.9141,0.0022,0.9124
37737,0.0535,0.0002,0.9050,0.0024,0.9106
37757,0.0476,0.0046,0.9138,0.0019,0.9120
37777,0.0486,0.0017,0.9124,0.0005,0.9125
37797,0.0469,-0.0037,0.9058,0.0024,0.9108
37817,0.0459,0.0032,0.9163,0.0023,0.9128
37837,0.0496,0.0039,0.9082,0.0014,0.9118
37857,0.0496,-0.0005,0.9128,0.0011,0.9125
37877,0.0471,-0.0015,0.9102,0.0010,0.9122
37897,0.0479,0.0002,0.9116,0.0002,0.9124
37917,0.0486,0.0002,0.9114,0.0002,0.9125
37937,0.0515,0.0032,0.9111,0.0013,0.9125
37957,0.0508,0.0034,0.9116,0.0008,0.9127
37977,0.0466,0.0015,0.9133,0.0011,0.9132
37997,0.0493,0.0015,0.9072,0.0014,0.9118
38017,0.0522,0.0007,0.9128,0.0012,0.9126
38037,0.0544,0.0015,0.9050,0.0023,0.9108
38057,0.0500,-0.0010,0.9087,0.0008,0.9106
38077,0.0488,0.0000,0.9065,0.0010,0.9097
38097,0.0488,-0.0071,0.9106,0.0024,0.9104
38117,0.0537,-0.0044,0.9124,0.0017,0.9115
38137,0.0491,-0.0029,0.9082,0.0008,0.9109
38157,0.0503,0.0042,0.9141,0.0025,0.9123
38177,0.0527,-0.0017,0.9087,0.0010,0.9116
38197,0.0500,0.0017,0.9114,0.0009,0.9120
38217,0.0481,0.0046,0.9080,0.0018,0.9112
38237,0.0493,0.0000,0.9065,0.0011,0.9102
38257,0.0554,-0.0061,0.9431,0.0106,0.9205
38277,0.0557,-0.0054,0.9109,0.0030,0.9181
38297,0.0532,-0.0032,0.9092,0.0023,0.9159
38317,0.0449,0.0024,0.9133,0.0029,0.9155
38337,0.0488,-0.0027,0.9116,0.0010,0.9147
38357,0.0491,-0.0017,0.9087,0.0014,0.9133
38377,0.0452,0.0068,0.9106,0.0029,0.9128
38397,0.0503,-0.0010,0.9104,0.0009,0.9125
38417,0.0469,0.0012,0.9094,0.0009,0.9120
38437,0.0476,0.0027,0.9150,0.0015,0.9133
38457,0.0486,-0.0059,0.8979,0.0047,0.9091
38477,0.0417,0.0056,0.9167,0.0039,0.9116
38497,0.0510,0.0005,0.9080,0.0016,0.9110
38517,0.0481,0.0042,0.9167,0.0023,0.9131
38537,0.0454,0.0037,0.9082,0.0014,0.9120
38557,0.0564,0.0049,0.9019,0.0039,0.9094
38577,0.0491,-0.0039,0.9084,0.0021,0.9095
38597,0.0503,0.0007,0.9128,0.0014,0.9109
38617,0.0437,0.0076,0.9187,0.0039,0.9136
38637,0.0503,0.0022,0.9128,0.0007,0.9138
38657,0.0540,-0.0005,0.9094,0.0021,0.9129
38677,0.0481,0.0034,0.9075,0.0015,0.9117
38697,0.0498,0.0029,0.9116,0.0004,0.9121
38717,0.0527,-0.0032,0.9114,0.0019,0.9123
38737,0.0486,-0.0037,0.9075,0.0018,0.9113
38757,0.0525,0.0007,0.9119,0.0010,0.9119
38777,0.0503,0.0007,0.9063,0.0013,0.9106
38797,0.0447,0.0063,0.9146,0.0030,0.9121
38817,0.0447,0.0076,0.9153,0.0025,0.9134
38837,0.0481,-0.0022,0.9060,0.0026,0.9116
38857,0.0474,-0.0029,0.9150,0.0020,0.9130
38877,0.0393,0.0042,0.9104,0.0028,0.9124
38897,0.0520,0.0020,0.9063,0.0026,0.9110
38917,0.0457,0.0078,0.9116,0.0020,0.9116
38937,0.0405,-0.0012,0.9126,0.0024,0.9121
38957,0.0466,0.0017,0.9158,0.0015,0.9136
38977,0.0449,0.0032,0.9119,0.0004,0.9134
38997,0.0481,-0.0039,0.9055,0.0029,0.9114
39017,0.0532,0.0042,0.9150,0.0028,0.9130
39037,0.0454,0.0063,0.9153,0.0020,0.9140
39057,0.0469,0.0022,0.9072,0.0017,0.9123
39077,0.0493,-0.0029,0.9072,0.0022,0.9112
39097,0.0481,0.0022,0.9099,0.0004,0.9112
39117,0.0452,-0.0015,0.9089,0.0012,0.9109
39137,0.0491,0.0027,0.9126,0.0012,0.9118
39157,0.0503,0.0002,0.9072,0.0013,0.9108
39177,0.0540,0.0010,0.9182,0.0031,0.9135
39197,0.0471,-0.0034,0.9104,0.0017,0.9129
39217,0.0471,0.0010,0.9128,0.0008,0.9133
39237,0.0491,0.0012,0.9043,0.0023,0.9110
39257,0.0540,0.0005,0.9099,0.0016,0.9111
39277,0.0508,-0.0002,0.9045,0.0016,0.9096
39297,0.0439,0.0017,0.9224,0.0047,0.9137
39317,0.0513,0.0015,0.9109,0.0010,0.9133
39337,0.0525,-0.0007,0.8950,0.0052,0.9083
39357,0.0405,0.0029,0.9277,0.0069,0.9144
39377,0.0510,-0.0005,0.9160,0.0015,0.9153
39397,0.0486,-0.0042,0.9121,0.0016,0.9147
39417,0.0500,-0.0037,0.9136,0.0010,0.9148
39437,0.0513,0.0012,0.9026,0.0034,0.9116
39457,0.0491,0.0007,0.9111,0.0006,0.9118
39477,0.0486,-0.0037,0.9097,0.0011,0.9116
39497,0.0503,-0.0015,0.9036,0.0020,0.9096
39517,0.0513,0.0012,0.9082,0.0009,0.9096
39537,0.0469,0.0010,0.9150,0.0023,0.9116
39557,0.0464,0.0017,0.9106,0.0010,0.9117
39577,0.0454,-0.0017,0.9121,0.0012,0.9121
39597,0.0471,-0.0027,0.9121,0.0008,0.9125
39617,0.0486,-0.0022,0.9099,0.0007,0.9121
39637,0.0496,-0.0005,0.9060,0.0016,0.9107
39657,0.0515,-0.0046,0.9089,0.0015,0.9106
39677,0.0498,-0.0002,0.9104,0.0007,0.9109
39697,0.0515,-0.0020,0.9124,0.0010,0.9118
39717,0.0508,0.0002,0.9028,0.0024,0.9095
39737,0.0569,-0.0022,0.9094,0.0020,0.9100
39757,0.0503,0.0022,0.9075,0.0013,0.9097
39777,0.0515,-0.0012,0.9041,0.0013,0.9084
39797,0.0513,-0.0024,0.9067,0.0006,0.9084
39817,0.0510,-0.0007,0.9089,0.0006,0.9090
39837,0.0510,-0.0046,0.9124,0.0018,0.9104
39857,0.0503,-0.0012,0.9109,0.0007,0.9110
39877,0.0530,-0.0007,0.9080,0.0008,0.9105
39897,0.0532,0.0024,0.9072,0.0014,0.9100
39917,0.0530,-0.0042,0.9072,0.0012,0.9096
39937,0.0498,-0.0024,0.9043,0.0014,0.9084
39957,0.0532,0.0020,0.9070,0.0012,0.9085
39977,0.0496,0.0007,0.9116,0.0016,0.9098
39997,0.0496,-0.0002,0.9060,0.0009,0.9091
40017,0.0474,0.0010,0.9121,0.0017,0.9104
40037,0.0530,-0.0024,0.9063,0.0015,0.9096
40057,0.0508,0.0024,0.9099,0.0011,0.9101
40077,0.0471,-0.0032,0.9124,0.0019,0.9111
40097,0.0486,0.0010,0.9121,0.0009,0.9118
40117,0.0525,-0.0022,0.9114,0.0011,0.9121
40137,0.0520,-0.0024,0.9070,0.0013,0.9110
40157,0.0515,-0.0059,0.9075,0.0015,0.9104
40177,0.0498,0.0007,0.9077,0.0011,0.9100
40197,0.0466,-0.0042,0.9121,0.0018,0.9110
40217,0.0535,-0.0034,0.9119,0.0014,0.9117
40237,0.0520,-0.0024,0.9097,0.0005,0.9116
40257,0.0515,-0.0022,0.9072,0.0009,0.9107
40277,0.0471,-0.0042,0.9104,0.0014,0.9110
40297,0.0503,-0.0054,0.9121,0.0010,0.9117
40317,0.0493,-0.0032,0.9060,0.0013,0.9104
40337,0.0510,-0.0037,0.9050,0.0013,0.9092
40357,0.0476,-0.0049,0.9072,0.0009,0.9090
40377,0.0515,-0.0020,0.9075,0.0009,0.9090
40397,0.0503,-0.0007,0.9146,0.0022,0.9111
40417,0.0515,-0.0020,0.9077,0.0007,0.9105
40437,0.0461,0.0000,0.9197,0.0035,0.9136
40457,0.0505,0.0007,0.9143,0.0010,0.9142
40477,0.0559,-0.0032,0.9089,0.0023,0.9132
40497,0.0510,-0.0012,0.9087,0.0009,0.9122
40517,0.0483,0.0020,0.9077,0.0017,0.9113
40537,0.0510,-0.0027,0.9121,0.0010,0.9119
40557,0.0525,-0.0046,0.9070,0.0016,0.9109
40577,0.0483,-0.0024,0.9114,0.0010,0.9114
40597,0.0464,0.0042,0.9160,0.0029,0.9132
40617,0.0461,-0.0017,0.9087,0.0014,0.9122
40637,0.0457,-0.0027,0.9124,0.0011,0.9126
40657,0.0481,-0.0029,0.9119,0.0005,0.9127
40677,0.0500,0.0012,0.9063,0.0020,0.9112
40697,0.0371,-0.0029,0.9182,0.0042,0.9135
40717,0.0469,0.0056,0.9043,0.0033,0.9111
40737,0.0527,0.0024,0.9048,0.0027,0.9097
40757,0.0513,-0.0024,0.9153,0.0026,0.9118
40777,0.0459,-0.0046,0.9116,0.0017,0.9121
40797,0.0510,0.0032,0.9080,0.0019,0.9113
40817,0.0471,-0.0051,0.9067,0.0019,0.9103
40837,0.0525,-0.0029,0.9114,0.0015,0.9111
40857,0.0498,0.0005,0.9124,0.0011,0.9119
40877,0.0508,-0.0037,0.9121,0.0009,0.9124
40897,0.0461,-0.0046,0.9126,0.0015,0.9128
40917,0.0505,0.0012,0.9148,0.0016,0.9138
40937,0.0488,-0.0002,0.9099,0.0009,0.9130
40957,0.0522,-0.0032,0.9019,0.0032,0.9101
40977,0.0532,-0.0051,0.9087,0.0014,0.9102
40997,0.0530,-0.0012,0.9067,0.0010,0.9096
41017,0.0520,-0.0090,0.9092,0.0020,0.9099
41037,0.0471,-0.0005,0.9099,0.0019,0.9103
41057,0.0500,-0.0034,0.9131,0.0013,0.9115
41077,0.0515,0.0044,0.9131,0.0025,0.9124
41097,0.0486,0.0000,0.9104,0.0007,0.9122
41117,0.0503,0.0010,0.9087,0.0008,0.9116
41137,0.0513,-0.0044,0.9104,0.0013,0.9117
41157,0.0474,-0.0007,0.9053,0.0018,0.9101
41177,0.0498,-0.0032,0.9094,0.0006,0.9103
41197,0.0525,-0.0049,0.9082,0.0013,0.9101
41217,0.0491,-0.0020,0.9087,0.0005,0.9101
41237,0.0513,-0.0029,0.9111,0.0008,0.9108
41257,0.0510,-0.0012,0.9124,0.0010,0.9117
41277,0.0513,-0.0049,0.9089,0.0009,0.9113
41297,0.0515,0.0010,0.9043,0.0021,0.9097
41317,0.0522,0.0027,0.9109,0.0016,0.9105
41337,0.0510,0.0000,0.9055,0.0011,0.9094
41357,0.0486,0.0022,0.9106,0.0014,0.9102
41377,0.0527,-0.0024,0.9124,0.0015,0.9113
41397,0.0522,-0.0032,0.9102,0.0009,0.9114
41417,0.0442,0.0002,0.9126,0.0024,0.9121
41437,0.0479,0.0007,0.9104,0.0006,0.9119
41457,0.0515,0.0024,0.9055,0.0019,0.9105
41477,0.0500,0.0010,0.9070,0.0007,0.9098
41497,0.0518,-0.0020,0.9072,0.0010,0.9095
41517,0.0474,0.0002,0.9026,0.0019,0.9078
41537,0.0500,-0.0020,0.9114,0.0016,0.9093
41557,0.0474,-0.0032,0.9065,0.0011,0.9088
41577,0.0471,-0.0012,0.9121,0.0015,0.9102
41597,0.0505,-0.0037,0.9106,0.0011,0.9107
41617,0.0476,-0.0032,0.9104,0.0006,0.9110
41637,0.0498,0.0054,0.9163,0.0031,0.9130
41657,0.0474,-0.0012,0.9082,0.0012,0.9119
41677,0.0452,-0.0032,0.9119,0.0014,0.9122
41697,0.0496,0.0020,0.9128,0.0013,0.9128
41717,0.0508,-0.0010,0.9028,0.0027,0.9103
41737,0.0566,-0.0024,0.9075,0.0024,0.9099
41757,0.0522,-0.0017,0.9102,0.0006,0.9105
41777,0.0474,0.0010,0.9048,0.0019,0.9091
41797,0.0486,-0.0034,0.9119,0.0016,0.9103
41817,0.0520,-0.0022,0.9094,0.0007,0.9105
41837,0.0518,-0.0005,0.9092,0.0005,0.9106
41857,0.0522,-0.0005,0.9192,0.0031,0.9136
41877,0.0503,-0.0032,0.9104,0.0009,0.9130
41897,0.0498,0.0078,0.9167,0.0033,0.9146
41917,0.0488,-0.0056,0.9019,0.0040,0.9111
41937,0.0491,-0.0020,0.9092,0.0005,0.9110
41957,0.0483,0.0010,0.9048,0.0016,0.9095
41977,0.0579,-0.0061,0.9058,0.0031,0.9089
41997,0.0439,-0.0022,0.9124,0.0028,0.9103
42017,0.0439,0.0005,0.9128,0.0022,0.9113
42037,0.0520,0.0000,0.9136,0.0017,0.9125
42057,0.0474,0.0017,0.9150,0.0015,0.9136
42077,0.0427,0.0027,0.9167,0.0024,0.9148
42097,0.0608,-0.0098,0.8918,0.0084,0.9085
42117,0.0496,-0.0071,0.9102,0.0017,0.9094
42137,0.0435,0.0046,0.9082,0.0033,0.9094
42157,0.0537,-0.0044,0.9094,0.0019,0.9099
42177,0.0530,0.0012,0.9082,0.0014,0.9098
42197,0.0483,0.0017,0.9009,0.0025,0.9075
42217,0.0554,-0.0066,0.9033,0.0026,0.9068
42237,0.0491,-0.0020,0.9075,0.0010,0.9074
42257,0.0474,-0.0037,0.9126,0.0023,0.9093
42277,0.0481,-0.0002,0.9131,0.0018,0.9108
42297,0.0508,-0.0039,0.9077,0.0009,0.9103
42317,0.0710,-0.0208,0.8960,0.0093,0.9068
42337,0.0493,-0.0029,0.9238,0.0062,0.9123
42357,0.0439,0.0071,0.9114,0.0051,0.9123
42377,0.0515,-0.0056,0.9063,0.0017,0.9110
42397,0.0515,-0.0005,0.9092,0.0009,0.9109
42417,0.0466,0.0034,0.9158,0.0030,0.9127
42437,0.0481,-0.0068,0.9106,0.0019,0.9125
42457,0.0520,-0.0022,0.9092,0.0010,0.9119
42477,0.0454,0.0039,0.9114,0.0024,0.9121
42497,0.0491,-0.0005,0.9082,0.0008,0.9113
42517,0.0525,-0.0051,0.9160,0.0025,0.9132
42537,0.0515,-0.0029,0.9131,0.0007,0.9136
42557,0.0505,-0.0015,0.9119,0.0002,0.9135
42577,0.0520,-0.0051,0.9058,0.0022,0.9116
42597,0.0493,0.0005,0.9060,0.0017,0.9103
42617,0.0508,0.0007,0.9084,0.0008,0.9102
42637,0.0500,-0.0015,0.9094,0.0003,0.9104
42657,0.0510,0.0000,0.9114,0.0008,0.9111
42677,0.0483,-0.0017,0.9109,0.0008,0.9114
42697,0.0483,-0.0007,0.9089,0.0006,0.9111
42717,0.0493,0.0012,0.9116,0.0009,0.9116
42737,0.0500,0.0010,0.9128,0.0009,0.9124
42757,0.0518,-0.0005,0.9143,0.0012,0.9134
42777,0.0457,-0.0020,0.9106,0.0015,0.9129
42797,0.0498,-0.0007,0.9055,0.0019,0.9111
42817,0.0474,-0.0066,0.9148,0.0024,0.9126
42837,0.0525,-0.0012,0.9150,0.0017,0.9138
42857,0.0505,-0.0024,0.9116,0.0003,0.9135
42877,0.0466,-0.0005,0.9099,0.0013,0.9128
42897,0.0461,0.0002,0.9102,0.0011,0.9124
42917,0.0510,-0.0012,0.9077,0.0013,0.9114
42937,0.0491,-0.0024,0.9063,0.0012,0.9103
42957,0.0496,-0.0037,0.9094,0.0007,0.9104
42977,0.0466,0.0037,0.9119,0.0021,0.9112
42997,0.0535,-0.0024,0.9133,0.0019,0.9123
43017,0.0481,0.0002,0.9080,0.0011,0.9114
43037,0.0493,0.0032,0.9092,0.0012,0.9111
43057,0.0525,0.0007,0.9028,0.0023,0.9091
43077,0.0422,0.0085,0.9099,0.0035,0.9096
43097,0.0593,0.0032,0.9026,0.0038,0.9081
43117,0.0476,-0.0068,0.9109,0.0034,0.9093
43137,0.0435,0.0010,0.9080,0.0020,0.9092
43157,0.0505,-0.0024,0.9119,0.0016,0.9104
43177,0.0588,-0.0098,0.8972,0.0054,0.9070
43197,0.0481,0.0010,0.9065,0.0017,0.9072
43217,0.0452,-0.0020,0.9072,0.0017,0.9076
43237,0.0537,-0.0049,0.9131,0.0026,0.9097
43257,0.0508,0.0029,0.9153,0.0027,0.9118
43277,0.0522,-0.0037,0.9089,0.0010,0.9114
43297,0.0488,-0.0037,0.9116,0.0010,0.9119
43317,0.0491,-0.0017,0.9109,0.0005,0.9120
43337,0.0476,-0.0015,0.9111,0.0008,0.9121
43357,0.0491,-0.0029,0.9111,0.0003,0.9122
43377,0.0571,-0.0068,0.9031,0.0036,0.9100
43397,0.0457,0.0015,0.9128,0.0027,0.9112
43417,0.0491,0.0005,0.9038,0.0020,0.9094
43437,0.0544,-0.0029,0.9136,0.0023,0.9111
43457,0.0496,-0.0012,0.9121,0.0009,0.9118
43477,0.0476,0.0005,0.9067,0.0016,0.9107
43497,0.0520,-0.0029,0.9084,0.0009,0.9104
43517,0.0540,-0.0024,0.9109,0.0012,0.9111
43537,0.0461,-0.0010,0.9102,0.0016,0.9111
43557,0.0483,-0.0049,0.9036,0.0022,0.9093
43577,0.0518,-0.0002,0.9102,0.0012,0.9100
43597,0.0496,-0.0015,0.9121,0.0011,0.9110
43617,0.0493,-0.0037,0.9067,0.0011,0.9101
43637,0.0493,0.0005,0.9172,0.0027,0.9127
43657,0.0481,0.0005,0.9131,0.0009,0.9132
43677,0.0513,-0.0039,0.9075,0.0017,0.9119
43697,0.0488,-0.0010,0.9116,0.0005,0.9122
43717,0.0488,0.0007,0.9092,0.0009,0.9117
43737,0.0466,-0.0039,0.9109,0.0012,0.9118
43757,0.0483,-0.0049,0.9087,0.0011,0.9113
43777,0.0491,-0.0039,0.9080,0.0007,0.9107
43797,0.0527,-0.0044,0.9116,0.0015,0.9114
43817,0.0461,-0.0027,0.9143,0.0017,0.9126
43837,0.0505,-0.0044,0.9092,0.0009,0.9120
43857,0.0505,-0.0022,0.9082,0.0009,0.9113
43877,0.0471,-0.0002,0.9136,0.0016,0.9123
43897,0.0476,0.0010,0.9089,0.0012,0.9117
43917,0.0542,-0.0007,0.9075,0.0019,0.9109
43937,0.0503,-0.0010,0.9114,0.0006,0.9115
43957,0.0503,0.0007,0.9143,0.0014,0.9127
43977,0.0498,-0.0017,0.9087,0.0009,0.9119
43997,0.0503,0.0022,0.9097,0.0010,0.9117
44017,0.0500,0.0022,0.9109,0.0007,0.9118
44037,0.0491,-0.0039,0.9114,0.0014,0.9121
44057,0.0515,-0.0022,0.9119,0.0008,0.9125
44077,0.0513,-0.0007,0.9082,0.0009,0.9116
44097,0.0520,-0.0034,0.9087,0.0009,0.9112
44117,0.0530,-0.0037,0.9119,0.0010,0.9119
44137,0.0488,-0.0034,0.9080,0.0012,0.9111
44157,0.0549,-0.0015,0.9102,0.0013,0.9113
44177,0.0500,-0.0010,0.9072,0.0011,0.9105
44197,0.0469,0.0005,0.9109,0.0016,0.9110
44217,0.0493,-0.0012,0.9072,0.0007,0.9102
44237,0.0491,0.0020,0.9067,0.0012,0.9096
44257,0.0500,-0.0046,0.9136,0.0021,0.9112
44277,0.0525,-0.0012,0.9065,0.0013,0.9102
44297,0.0486,0.0012,0.9124,0.0015,0.9113
44317,0.0459,0.0005,0.9033,0.0023,0.9092
44337,0.0547,0.0002,0.9114,0.0021,0.9104
44357,0.0479,-0.0002,0.9126,0.0014,0.9114
44377,0.0471,-0.0029,0.9094,0.0012,0.9112
44397,0.0491,0.0010,0.9084,0.0007,0.9108
44417,0.0471,-0.0010,0.9143,0.0016,0.9122
44437,0.0510,-0.0022,0.9124,0.0010,0.9127
44457,0.0476,0.0037,0.9104,0.0015,0.9124
44477,0.0498,0.0015,0.9089,0.0008,0.9117
44497,0.0508,-0.0007,0.9114,0.0007,0.9121
44517,0.0479,-0.0002,0.9087,0.0008,0.9114
44537,0.0503,-0.0005,0.9075,0.0009,0.9107
44557,0.0513,-0.0034,0.9089,0.0012,0.9106
44577,0.0518,0.0017,0.9109,0.0011,0.9111
44597,0.0469,0.0015,0.9092,0.0012,0.9109
44617,0.0498,-0.0029,0.9087,0.0010,0.9106
44637,0.0469,-0.0032,0.9077,0.0012,0.9101
44657,0.0488,0.0002,0.9163,0.0023,0.9124
44677,0.0486,0.0034,0.9087,0.0015,0.9116
44697,0.0481,-0.0022,0.9089,0.0009,0.9112
44717,0.0505,-0.0024,0.9160,0.0020,0.9131
44737,0.0508,-0.0007,0.9075,0.0014,0.9118
44757,0.0510,0.0007,0.9087,0.0008,0.9113
44777,0.0515,0.0005,0.9092,0.0006,0.9111
44797,0.0493,-0.0027,0.9133,0.0014,0.9122
44817,0.0476,-0.0017,0.9099,0.0008,0.9119
44837,0.0486,0.0012,0.9167,0.0020,0.9137
44857,0.0496,0.0020,0.9070,0.0018,0.9121
44877,0.0488,-0.0071,0.9133,0.0023,0.9129
44897,0.0464,-0.0010,0.9094,0.0011,0.9122
44917,0.0542,-0.0007,0.9116,0.0018,0.9125
44937,0.0488,0.0032,0.9165,0.0021,0.9141
44957,0.0503,-0.0002,0.9097,0.0009,0.9132
44977,0.0549,-0.0005,0.9084,0.0018,0.9123
44997,0.0486,-0.0027,0.9160,0.0019,0.9138
45017,0.0508,-0.0010,0.9082,0.0013,0.9125
45037,0.0496,-0.0017,0.9106,0.0004,0.9124
45057,0.0486,0.0024,0.9080,0.0015,0.9114
45077,0.0515,-0.0012,0.9102,0.0006,0.9115
45097,0.0513,0.0000,0.9148,0.0014,0.9129
45117,0.0498,-0.0054,0.9023,0.0032,0.9102
45137,0.0488,-0.0012,0.9150,0.0019,0.9120
45157,0.0498,-0.0017,0.9104,0.0001,0.9119
45177,0.0530,0.0022,0.9126,0.0016,0.9126
45197,0.0503,-0.0027,0.9121,0.0007,0.9129
45217,0.0508,-0.0002,0.9036,0.0024,0.9105
45237,0.0505,0.0034,0.9087,0.0013,0.9104
45257,0.0466,-0.0049,0.9084,0.0020,0.9102
45277,0.0491,-0.0007,0.9109,0.0006,0.9108
45297,0.0464,-0.0024,0.9099,0.0010,0.9109
45317,0.0513,0.0022,0.9087,0.0014,0.9106
45337,0.0459,-0.0020,0.9102,0.0012,0.9108
45357,0.0488,-0.0022,0.9124,0.0009,0.9117
45377,0.0510,-0.0015,0.9121,0.0009,0.9122
45397,0.0479,-0.0027,0.9102,0.0006,0.9120
45417,0.0493,-0.0012,0.9094,0.0004,0.9116
45437,0.0518,0.0015,0.9087,0.0013,0.9112
45457,0.0488,-0.0017,0.9055,0.0014,0.9099
45477,0.0535,-0.0010,0.9097,0.0012,0.9103
45497,0.0459,-0.0029,0.9143,0.0023,0.9118
45517,0.0503,0.0022,0.9106,0.0012,0.9119
45537,0.0493,0.0002,0.9106,0.0002,0.9119
45557,0.0518,0.0015,0.9097,0.0009,0.9117
45577,0.0493,0.0032,0.9148,0.0016,0.9130
45597,0.0496,-0.0012,0.9084,0.0012,0.9121
45617,0.0498,-0.0020,0.9104,0.0007,0.9120
45637,0.0454,0.0005,0.9141,0.0017,0.9129
45657,0.0483,-0.0027,0.9102,0.0009,0.9125
45677,0.0503,-0.0005,0.9089,0.0009,0.9118
45697,0.0515,-0.0005,0.9038,0.0022,0.9099
45717,0.0500,-0.0005,0.9082,0.0001,0.9098
45737,0.0483,-0.0029,0.9136,0.0018,0.9113
45757,0.0486,-0.0005,0.9036,0.0020,0.9094
45777,0.0530,0.0061,0.9092,0.0025,0.9098
45797,0.0520,0.0010,0.9050,0.0011,0.9088
45817,0.0493,0.0002,0.9099,0.0009,0.9095
45837,0.0476,-0.0012,0.9106,0.0013,0.9102
45857,0.0479,-0.0032,0.9094,0.0011,0.9104
45877,0.0530,-0.0024,0.9102,0.0013,0.9108
45897,0.0515,-0.0012,0.9104,0.0005,0.9111
45917,0.0476,0.0002,0.9126,0.0013,0.9119
45937,0.0476,-0.0017,0.9141,0.0013,0.9129
45957,0.0505,-0.0010,0.9148,0.0011,0.9139
45977,0.0522,0.0010,0.9092,0.0014,0.9129
45997,0.0486,-0.0012,0.9063,0.0017,0.9113
46017,0.0479,0.0000,0.9077,0.0009,0.9106
46037,0.0486,-0.0012,0.9077,0.0006,0.9101
46057,0.0525,0.0007,0.9136,0.0018,0.9116
46077,0.0500,-0.0054,0.9087,0.0016,0.9112
46097,0.0498,-0.0046,0.9094,0.0009,0.9110
46117,0.0525,-0.0012,0.9160,0.0021,0.9130
46137,0.0498,0.0002,0.9099,0.0009,0.9125
46157,0.0474,-0.0037,0.9094,0.0012,0.9119
46177,0.0493,-0.0017,0.9133,0.0008,0.9127
46197,0.0513,0.0024,0.9094,0.0016,0.9122
46217,0.0479,-0.0015,0.9080,0.0011,0.9113
46237,0.0498,-0.0005,0.9106,0.0003,0.9115
46257,0.0493,0.0000,0.9084,0.0006,0.9110
46277,0.0522,0.0015,0.9114,0.0012,0.9116
46297,0.0474,-0.0005,0.9102,0.0009,0.9115
46317,0.0469,0.0007,0.9094,0.0008,0.9112
46337,0.0513,-0.0020,0.9133,0.0014,0.9123
46357,0.0476,-0.0027,0.9065,0.0016,0.9109
46377,0.0500,-0.0010,0.9084,0.0005,0.9106
46397,0.0493,-0.0027,0.9116,0.0009,0.9113
46417,0.0522,-0.0034,0.9084,0.0011,0.9109
46437,0.0503,-0.0012,0.9048,0.0014,0.9095
46457,0.0500,-0.0017,0.9067,0.0004,0.9091
46477,0.0474,0.0012,0.9150,0.0025,0.9112
46497,0.0483,-0.0039,0.9092,0.0010,0.9110
46517,0.0491,-0.0015,0.9065,0.0010,0.9100
46537,0.0461,-0.0015,0.9121,0.0013,0.9110
46557,0.0503,0.0022,0.9089,0.0013,0.9108
46577,0.0498,-0.0010,0.9072,0.0008,0.9101
46597,0.0505,-0.0002,0.9124,0.0012,0.9112
46617,0.0510,-0.0017,0.9045,0.0017,0.9097
46637,0.0515,-0.0032,0.9089,0.0009,0.9099
46657,0.0515,0.0002,0.9104,0.0009,0.9105
46677,0.0474,0.0002,0.9104,0.0012,0.9108
46697,0.0515,0.0032,0.9109,0.0013,0.9113
46717,0.0481,0.0005,0.9126,0.0010,0.9121
46737,0.0466,0.0007,0.9041,0.0022,0.9100
46757,0.0476,-0.0027,0.9065,0.0012,0.9093
46777,0.0488,-0.0010,0.9141,0.0018,0.9111
46797,0.0488,-0.0005,0.9131,0.0010,0.9121
46817,0.0496,-0.0024,0.9080,0.0011,0.9113
46837,0.0493,-0.0010,0.9126,0.0008,0.9121
46857,0.0547,-0.0032,0.9111,0.0018,0.9123
46877,0.0508,0.0020,0.9121,0.0012,0.9127
46897,0.0510,-0.0007,0.9114,0.0001,0.9127
46917,0.0505,-0.0005,0.9133,0.0006,0.9133
46937,0.0493,-0.0012,0.9097,0.0008,0.9126
46957,0.0527,0.0007,0.9092,0.0011,0.9120
46977,0.0481,-0.0010,0.9143,0.0014,0.9131
46997,0.0461,-0.0027,0.9106,0.0014,0.9127
47017,0.0522,-0.0007,0.9102,0.0011,0.9124
47037,0.0508,-0.0022,0.9131,0.0008,0.9130
47057,0.0476,-0.0017,0.9045,0.0023,0.9109
47077,0.0505,0.0000,0.9031,0.0020,0.9089
47097,0.0481,-0.0010,0.9082,0.0005,0.9091
47117,0.0520,-0.0010,0.9136,0.0019,0.9109
47137,0.0481,-0.0042,0.9114,0.0012,0.9114
47157,0.0461,0.0015,0.9116,0.0015,0.9118
47177,0.0510,-0.0017,0.9070,0.0013,0.9108
47197,0.0522,-0.0039,0.9065,0.0015,0.9100
47217,0.0508,0.0007,0.9102,0.0010,0.9104
47237,0.0513,0.0000,0.9153,0.0019,0.9123
47257,0.0540,-0.0017,0.9021,0.0028,0.9097
47277,0.0520,0.0000,0.9080,0.0004,0.9097
47297,0.0500,0.0007,0.9089,0.0007,0.9098
47317,0.0493,-0.0029,0.9102,0.0011,0.9103
47337,0.0491,-0.0037,0.9131,0.0015,0.9116
47357,0.0527,-0.0012,0.9084,0.0009,0.9111
47377,0.0488,-0.0027,0.9141,0.0015,0.9124
47397,0.0491,0.0002,0.9136,0.0011,0.9131
47417,0.0498,0.0024,0.9094,0.0013,0.9124
47437,0.0481,0.0000,0.9121,0.0006,0.9127
47457,0.0535,-0.0059,0.9072,0.0025,0.9115
47477,0.0508,-0.0029,0.9063,0.0012,0.9104
47497,0.0522,-0.0010,0.9114,0.0009,0.9111
47517,0.0479,0.0024,0.9080,0.0017,0.9106
47537,0.0476,-0.0020,0.9087,0.0009,0.9104
47557,0.0562,0.0022,0.9111,0.0023,0.9111
47577,0.0493,0.0002,0.9131,0.0012,0.9121
47597,0.0488,-0.0071,0.9106,0.0022,0.9121
47617,0.0503,-0.0022,0.9097,0.0003,0.9118
47637,0.0522,0.0029,0.9116,0.0017,0.9122
47657,0.0498,0.0002,0.9099,0.0005,0.9119
47677,0.0508,-0.0039,0.9126,0.0012,0.9125
47697,0.0496,0.0017,0.9077,0.0014,0.9115
47717,0.0471,-0.0068,0.9109,0.0021,0.9117
47737,0.0491,0.0002,0.9087,0.0009,0.9112
47757,0.0481,-0.0044,0.9065,0.0014,0.9102
47777,0.0520,-0.0044,0.9109,0.0013,0.9108
47797,0.0518,-0.0039,0.9109,0.0008,0.9113
47817,0.0510,-0.0012,0.9102,0.0007,0.9114
47837,0.0464,0.0015,0.9084,0.0018,0.9108
47857,0.0503,-0.0051,0.9167,0.0025,0.9130
47877,0.0488,0.0012,0.9138,0.0013,0.9137
47897,0.0483,-0.0020,0.9104,0.0007,0.9131
47917,0.0500,-0.0012,0.9087,0.0010,0.9122
47937,0.0520,-0.0012,0.9124,0.0009,0.9127
47957,0.0498,-0.0010,0.9153,0.0012,0.9139
47977,0.0510,-0.0024,0.9087,0.0012,0.9127
47997,0.0513,-0.0012,0.9084,0.0009,0.9119
48017,0.0466,0.0005,0.9038,0.0024,0.9098
48037,0.0500,0.0012,0.9048,0.0013,0.9087
48057,0.0520,0.0029,0.9155,0.0027,0.9112
48077,0.0488,-0.0002,0.9158,0.0019,0.9130
48097,0.0518,-0.0027,0.9084,0.0014,0.9121
48117,0.0500,0.0000,0.9089,0.0006,0.9115
48137,0.0496,-0.0002,0.9131,0.0009,0.9124
48157,0.0461,-0.0032,0.9087,0.0016,0.9116
48177,0.0488,0.0002,0.9116,0.0006,0.9120
48197,0.0510,-0.0015,0.9099,0.0007,0.9118
48217,0.0496,-0.0037,0.9114,0.0009,0.9121
48237,0.0505,-0.0034,0.9084,0.0009,0.9114
48257,0.0505,0.0007,0.9067,0.0014,0.9104
48277,0.0486,0.0002,0.9097,0.0007,0.9106
48297,0.0491,-0.0017,0.9109,0.0006,0.9111
48317,0.0503,-0.0034,0.9158,0.0020,0.9129
48337,0.0505,0.0000,0.9163,0.0015,0.9143
48357,0.0449,0.0002,0.9106,0.0017,0.9136
48377,0.0527,-0.0015,0.9106,0.0014,0.9131
48397,0.0493,0.0015,0.9089,0.0011,0.9123
48417,0.0505,0.0010,0.9077,0.0011,0.9113
48437,0.0479,-0.0012,0.9089,0.0008,0.9110
48457,0.0520,-0.0039,0.9060,0.0017,0.9099
48477,0.0535,-0.0020,0.9045,0.0016,0.9088
48497,0.0498,-0.0012,0.9087,0.0006,0.9092
48517,0.0513,-0.0032,0.9075,0.0005,0.9091
48537,0.0513,-0.0032,0.9128,0.0016,0.9107
48557,0.0510,-0.0037,0.9094,0.0004,0.9107
48577,0.0479,0.0010,0.9146,0.0022,0.9122
48597,0.0471,-0.0029,0.9121,0.0010,0.9126
48617,0.0503,-0.0007,0.9099,0.0006,0.9122
48637,0.0488,-0.0037,0.9067,0.0014,0.9109
48657,0.0481,-0.0034,0.9094,0.0005,0.9109
48677,0.0471,-0.0010,0.9089,0.0008,0.9107
48697,0.0525,0.0017,0.9075,0.0018,0.9102
48717,0.0513,0.0029,0.9150,0.0023,0.9120
48737,0.0486,-0.0015,0.9121,0.0008,0.9125
48757,0.0488,0.0010,0.9128,0.0007,0.9130
48777,0.0505,0.0022,0.9077,0.0014,0.9118
48797,0.0459,-0.0020,0.9075,0.0017,0.9109
48817,0.0503,0.0012,0.9104,0.0007,0.9111
48837,0.0486,0.0012,0.9106,0.0004,0.9114
48857,0.0498,0.0027,0.9153,0.0017,0.9130
48877,0.0530,-0.0010,0.9099,0.0014,0.9125
48897,0.0496,0.0022,0.9097,0.0007,0.9121
48917,0.0476,-0.0010,0.9180,0.0024,0.9142
48937,0.0457,-0.0020,0.9128,0.0013,0.9141
48957,0.0479,-0.0022,0.9082,0.0015,0.9127
48977,0.0498,-0.0005,0.9094,0.0008,0.9121
48997,0.0530,-0.0049,0.9099,0.0018,0.9119
49017,0.0496,0.0007,0.9124,0.0010,0.9125
49037,0.0471,0.0032,0.9089,0.0017,0.9118
49057,0.0461,-0.0044,0.9109,0.0016,0.9119
49077,0.0515,-0.0039,0.9077,0.0016,0.9111
49097,0.0500,-0.0012,0.9077,0.0007,0.9105
49117,0.0491,-0.0042,0.9099,0.0008,0.9107
49137,0.0459,0.0000,0.9087,0.0013,0.9104
49157,0.0488,-0.0020,0.9121,0.0009,0.9113
49177,0.0549,0.0012,0.9099,0.0021,0.9114
49197,0.0500,0.0015,0.9038,0.0020,0.9095
49217,0.0530,0.0002,0.9119,0.0014,0.9107
49237,0.0483,0.0020,0.9099,0.0010,0.9108
49257,0.0508,-0.0005,0.9116,0.0007,0.9115
49277,0.0471,0.0039,0.9128,0.0017,0.9123
49297,0.0496,0.0046,0.9067,0.0016,0.9110
49317,0.0496,0.0012,0.9084,0.0005,0.9107
49337,0.0508,-0.0015,0.9077,0.0012,0.9102
49357,0.0493,-0.0022,0.9099,0.0010,0.9105
49377,0.0518,-0.0005,0.9067,0.0010,0.9098
49397,0.0496,-0.0017,0.9111,0.0010,0.9106
49417,0.0491,-0.0002,0.9119,0.0009,0.9114
49437,0.0476,-0.0022,0.9126,0.0011,0.9121
49457,0.0493,-0.0005,0.9077,0.0009,0.9112
49477,0.0481,0.0022,0.9114,0.0011,0.9116
49497,0.0513,0.0000,0.9075,0.0011,0.9108
49517,0.0491,-0.0034,0.9075,0.0012,0.9102
49537,0.0493,-0.0024,0.9104,0.0006,0.9107
49557,0.0515,-0.0034,0.9116,0.0011,0.9114
49577,0.0503,0.0005,0.9109,0.0008,0.9117
49597,0.0508,-0.0020,0.9106,0.0003,0.9118
49617,0.0522,-0.0032,0.9087,0.0009,0.9113
49637,0.0500,-0.0007,0.9060,0.0012,0.9101
49657,0.0515,0.0000,0.9089,0.0006,0.9102
49677,0.0471,0.0024,0.9109,0.0017,0.9108
49697,0.0527,-0.0022,0.9097,0.0011,0.9109
49717,0.0520,-0.0005,0.9094,0.0004,0.9109
49737,0.0461,-0.0017,0.9067,0.0017,0.9100
49757,0.0503,0.0010,0.9070,0.0008,0.9095
49777,0.0520,-0.0034,0.9089,0.0012,0.9098
49797,0.0510,-0.0015,0.9084,0.0002,0.9098
49817,0.0500,-0.0007,0.9063,0.0007,0.9092
49837,0.0510,-0.0042,0.9099,0.0011,0.9098
49857,0.0503,-0.0002,0.9050,0.0012,0.9088
49877,0.0452,0.0002,0.9124,0.0023,0.9102
49897,0.0540,0.0007,0.9121,0.0019,0.9112
49917,0.0488,0.0017,0.9128,0.0012,0.9121
49937,0.0486,-0.0005,0.9121,0.0006,0.9125
49957,0.0476,-0.0027,0.9119,0.0010,0.9127
49977,0.0469,-0.0044,0.9087,0.0015,0.9118
49997,0.0481,-0.0005,0.9045,0.0019,0.9100
50017,0.0488,-0.0024,0.9048,0.0012,0.9089
50037,0.0498,-0.0049,0.9060,0.0011,0.9084
50057,0.0493,0.0017,0.9067,0.0013,0.9083
50077,0.0515,-0.0017,0.9092,0.0010,0.9090
50097,0.0510,-0.0061,0.9055,0.0016,0.9084
50117,0.0527,0.0000,0.9150,0.0027,0.9108
50137,0.0508,-0.0022,0.9050,0.0013,0.9095
50157,0.0505,-0.0002,0.9092,0.0006,0.9098
50177,0.0535,-0.0005,0.9053,0.0013,0.9089
50197,0.0518,-0.0002,0.9124,0.0015,0.9104
50217,0.0496,-0.0002,0.9089,0.0007,0.9104
50237,0.0498,-0.0005,0.9128,0.0012,0.9115
50257,0.0549,-0.0007,0.9111,0.0013,0.9119
50277,0.0510,-0.0044,0.9131,0.0014,0.9127
50297,0.0483,-0.0029,0.9087,0.0013,0.9119
50317,0.0481,-0.0010,0.9114,0.0009,0.9121
50337,0.0498,0.0007,0.9133,0.0011,0.9129
50357,0.0481,-0.0017,0.9089,0.0010,0.9121
50377,0.0474,-0.0002,0.9097,0.0007,0.9117
50397,0.0540,-0.0046,0.9087,0.0020,0.9113
50417,0.0505,-0.0029,0.9097,0.0003,0.9112
50437,0.0498,-0.0005,0.9099,0.0006,0.9112
50457,0.0535,-0.0020,0.9141,0.0016,0.9126
50477,0.0498,-0.0032,0.9121,0.0007,0.9128
50497,0.0486,-0.0039,0.9084,0.0012,0.9119
50517,0.0522,0.0012,0.9094,0.0014,0.9116
50537,0.0520,-0.0015,0.9092,0.0005,0.9113
50557,0.0500,-0.0015,0.9109,0.0004,0.9116
50577,0.0464,-0.0022,0.9065,0.0017,0.9104
50597,0.0498,-0.0034,0.9077,0.0007,0.9100
50617,0.0510,-0.0015,0.9094,0.0005,0.9103
50637,0.0474,-0.0007,0.9109,0.0011,0.9108
50657,0.0505,-0.0037,0.9124,0.0011,0.9117
50677,0.0496,-0.0010,0.9058,0.0014,0.9103
50697,0.0474,0.0005,0.9138,0.0017,0.9117
50717,0.0488,0.0010,0.9092,0.0007,0.9114
50737,0.0532,-0.0017,0.9126,0.0015,0.9122
50757,0.0500,-0.0015,0.9121,0.0004,0.9126
50777,0.0496,-0.0002,0.9180,0.0021,0.9146
50797,0.0513,0.0005,0.9109,0.0009,0.9139
50817,0.0510,-0.0020,0.9077,0.0015,0.9125
50837,0.0488,-0.0032,0.9116,0.0009,0.9126
50857,0.0525,-0.0051,0.9111,0.0013,0.9126
50877,0.0488,0.0051,0.9067,0.0028,0.9113
50897,0.0493,-0.0032,0.9111,0.0010,0.9116
50917,0.0513,-0.0015,0.9063,0.0013,0.9104
50937,0.0520,-0.0020,0.9063,0.0010,0.9096
50957,0.0493,-0.0020,0.9097,0.0006,0.9100
50977,0.0486,-0.0027,0.9109,0.0009,0.9107
50997,0.0474,-0.0034,0.9119,0.0012,0.9114
51017,0.0522,-0.0020,0.9102,0.0010,0.9115
51037,0.0491,-0.0029,0.9121,0.0007,0.9121
51057,0.0466,-0.0042,0.9104,0.0011,0.9119
51077,0.0513,-0.0027,0.9050,0.0018,0.9103
51097,0.0520,-0.0007,0.9124,0.0014,0.9114
51117,0.0493,-0.0012,0.9067,0.0011,0.9104
51137,0.0461,0.0000,0.9065,0.0015,0.9096
51157,0.0469,-0.0032,0.9106,0.0011,0.9102
51177,0.0500,-0.0002,0.9084,0.0007,0.9101
51197,0.0520,-0.0020,0.9094,0.0010,0.9104
51217,0.0513,-0.0012,0.9038,0.0016,0.9088
51237,0.0488,0.0007,0.9128,0.0018,0.9104
51257,0.0522,-0.0005,0.9119,0.0011,0.9113
51277,0.0522,0.0012,0.9119,0.0010,0.9119
51297,0.0520,-0.0007,0.9104,0.0003,0.9119
51317,0.0479,-0.0032,0.9106,0.0014,0.9119
51337,0.0500,-0.0027,0.9143,0.0012,0.9130
51357,0.0508,-0.0002,0.9116,0.0004,0.9130
51377,0.0503,-0.0010,0.9143,0.0008,0.9138
51397,0.0503,-0.0059,0.9114,0.0015,0.9135
51417,0.0476,-0.0017,0.9124,0.0009,0.9135
51437,0.0469,0.0010,0.9102,0.0014,0.9129
51457,0.0488,-0.0010,0.9116,0.0001,0.9129
51477,0.0525,-0.0071,0.9097,0.0022,0.9124
51497,0.0488,-0.0012,0.9063,0.0016,0.9109
51517,0.0508,-0.0029,0.9048,0.0015,0.9095
51537,0.0508,-0.0022,0.9097,0.0005,0.9100
51557,0.0476,0.0002,0.9077,0.0012,0.9097
51577,0.0474,-0.0005,0.9087,0.0007,0.9098
51597,0.0513,-0.0044,0.9111,0.0014,0.9106
51617,0.0464,-0.0010,0.9106,0.0011,0.9110
51637,0.0496,-0.0002,0.9102,0.0006,0.9111
51657,0.0544,-0.0027,0.9087,0.0017,0.9109
51677,0.0505,-0.0002,0.9099,0.0005,0.9110
51697,0.0542,0.0020,0.9058,0.0019,0.9099
51717,0.0496,0.0002,0.9092,0.0007,0.9101
51737,0.0508,0.0005,0.9133,0.0014,0.9115
51757,0.0488,-0.0039,0.9121,0.0015,0.9121
51777,0.0476,-0.0002,0.9119,0.0009,0.9124
51797,0.0500,-0.0020,0.9097,0.0005,0.9120
51817,0.0464,-0.0002,0.9067,0.0016,0.9108
51837,0.0535,-0.0034,0.9092,0.0016,0.9108
51857,0.0500,-0.0027,0.9141,0.0014,0.9122
51877,0.0481,-0.0007,0.9072,0.0013,0.9111
51897,0.0481,-0.0007,0.9153,0.0017,0.9127
51917,0.0520,-0.0022,0.9119,0.0009,0.9129
51937,0.0537,-0.0027,0.9136,0.0013,0.9136
51957,0.0518,-0.0007,0.9075,0.0015,0.9122
51977,0.0483,0.0010,0.9092,0.0013,0.9117
51997,0.0500,0.0012,0.9082,0.0009,0.9110
52017,0.0503,-0.0005,0.9114,0.0005,0.9116
52037,0.0471,0.0039,0.9077,0.0017,0.9108
52057,0.0518,-0.0042,0.9106,0.0017,0.9112
52077,0.0540,-0.0002,0.9141,0.0017,0.9125
52097,0.0520,0.0005,0.9124,0.0005,0.9129
52117,0.0459,-0.0007,0.9160,0.0022,0.9142
52137,0.0503,-0.0007,0.9031,0.0029,0.9113
52157,0.0461,0.0005,0.9043,0.0021,0.9095
52177,0.0488,0.0020,0.9094,0.0007,0.9099
52197,0.0508,0.0010,0.9128,0.0014,0.9112
52217,0.0520,-0.0017,0.9087,0.0011,0.9109
52237,0.0510,-0.0024,0.9111,0.0009,0.9114
52257,0.0520,-0.0037,0.9097,0.0010,0.9113
52277,0.0532,-0.0012,0.9106,0.0007,0.9116
52297,0.0481,-0.0015,0.9102,0.0011,0.9115
52317,0.0481,0.0024,0.9072,0.0016,0.9106
52337,0.0486,-0.0005,0.9089,0.0004,0.9105
52357,0.0522,0.0029,0.9036,0.0021,0.9089
52377,0.0513,-0.0034,0.9138,0.0023,0.9108
52397,0.0522,-0.0027,0.9077,0.0009,0.9103
52417,0.0479,-0.0054,0.9055,0.0019,0.9093
52437,0.0496,-0.0037,0.9077,0.0004,0.9092
52457,0.0532,-0.0024,0.9058,0.0012,0.9086
52477,0.0505,0.0029,0.9084,0.0017,0.9090
52497,0.0503,-0.0042,0.9067,0.0010,0.9087
52517,0.0513,0.0002,0.9133,0.0019,0.9105
52537,0.0493,-0.0010,0.9126,0.0011,0.9116
52557,0.0452,0.0010,0.9148,0.0022,0.9129
52577,0.0474,0.0017,0.9075,0.0015,0.9116
52597,0.0486,-0.0032,0.9116,0.0011,0.9120
52617,0.0500,-0.0029,0.9109,0.0008,0.9121
52637,0.0483,-0.0039,0.9116,0.0008,0.9123
52657,0.0493,0.0010,0.9109,0.0010,0.9123
52677,0.0508,-0.0029,0.9089,0.0010,0.9117
52697,0.0525,0.0005,0.9114,0.0012,0.9121
52717,0.0518,0.0012,0.9099,0.0008,0.9119
52737,0.0457,0.0020,0.9077,0.0019,0.9110
52757,0.0471,0.0002,0.9077,0.0009,0.9104
52777,0.0481,-0.0015,0.9094,0.0006,0.9105
52797,0.0518,-0.0059,0.9109,0.0020,0.9110
52817,0.0496,0.0010,0.9080,0.0010,0.9105
52837,0.0486,0.0002,0.9082,0.0006,0.9102
52857,0.0508,-0.0044,0.9124,0.0016,0.9113
52877,0.0510,-0.0020,0.9094,0.0004,0.9112
52897,0.0505,0.0010,0.9148,0.0017,0.9127
52917,0.0513,0.0005,0.9099,0.0007,0.9123
52937,0.0486,0.0002,0.9077,0.0011,0.9113
52957,0.0510,0.0007,0.9109,0.0005,0.9116
52977,0.0496,-0.0022,0.9128,0.0011,0.9124
52997,0.0488,-0.0022,0.9104,0.0006,0.9122
53017,0.0491,-0.0020,0.9097,0.0005,0.9118
53037,0.0496,-0.0027,0.9136,0.0010,0.9128
53057,0.0535,0.0029,0.9126,0.0019,0.9132
53077,0.0527,-0.0024,0.9094,0.0011,0.9125
53097,0.0508,0.0012,0.9087,0.0010,0.9118
53117,0.0491,-0.0039,0.9119,0.0013,0.9122
53137,0.0476,-0.0002,0.9131,0.0012,0.9128
53157,0.0479,-0.0029,0.9097,0.0010,0.9123
53177,0.0493,0.0010,0.9119,0.0008,0.9125
53197,0.0479,-0.0015,0.9070,0.0013,0.9113
53217,0.0483,-0.0037,0.9097,0.0008,0.9112
53237,0.0505,-0.0020,0.9036,0.0020,0.9093
53257,0.0520,-0.0020,0.9128,0.0017,0.9108
53277,0.0520,0.0020,0.9116,0.0014,0.9115
53297,0.0493,-0.0005,0.9148,0.0015,0.9129
53317,0.0459,-0.0015,0.9026,0.0030,0.9101
53337,0.0520,-0.0010,0.9023,0.0022,0.9083
53357,0.0544,-0.0022,0.9014,0.0022,0.9067
53377,0.0513,-0.0022,0.9067,0.0005,0.9071
53397,0.0479,0.0010,0.9109,0.0020,0.9086
53417,0.0537,-0.0020,0.9094,0.0013,0.9093
53437,0.0481,-0.0012,0.9099,0.0011,0.9099
53457,0.0520,0.0012,0.9077,0.0009,0.9097
53477,0.0500,-0.0024,0.9109,0.0010,0.9105
53497,0.0513,-0.0012,0.9094,0.0002,0.9106
53517,0.0469,0.0022,0.9131,0.0019,0.9117
53537,0.0522,0.0022,0.9131,0.0013,0.9126
53557,0.0527,-0.0005,0.9089,0.0010,0.9119
53577,0.0500,-0.0024,0.9033,0.0023,0.9098
53597,0.0464,-0.0037,0.9104,0.0017,0.9103
53617,0.0493,0.0000,0.9072,0.0007,0.9098
53637,0.0491,0.0005,0.9143,0.0018,0.9115
53657,0.0510,0.0005,0.9065,0.0013,0.9105
53677,0.0520,-0.0012,0.9072,0.0009,0.9099
53697,0.0540,-0.0002,0.9087,0.0010,0.9100
53717,0.0500,-0.0020,0.9045,0.0014,0.9088
53737,0.0515,-0.0022,0.9082,0.0005,0.9091
53757,0.0508,-0.0002,0.9087,0.0005,0.9094
53777,0.0500,-0.0020,0.9109,0.0010,0.9102
53797,0.0476,0.0002,0.9077,0.0011,0.9099
53817,0.0542,-0.0015,0.9084,0.0013,0.9099
53837,0.0503,0.0027,0.9114,0.0014,0.9108
53857,0.0503,-0.0037,0.9060,0.0015,0.9098
53877,0.0530,-0.0037,0.9092,0.0011,0.9100
53897,0.0449,-0.0046,0.9141,0.0027,0.9116
53917,0.0483,-0.0020,0.9158,0.0017,0.9132
53937,0.0522,0.0007,0.9133,0.0014,0.9137
53957,0.0542,0.0007,0.9094,0.0017,0.9129
53977,0.0535,-0.0024,0.9119,0.0008,0.9131
53997,0.0510,0.0005,0.9116,0.0006,0.9131
54017,0.0508,-0.0020,0.9087,0.0010,0.9122
54037,0.0483,-0.0007,0.9067,0.0015,0.9109
54057,0.0498,-0.0017,0.9131,0.0011,0.9120
54077,0.0476,-0.0032,0.9072,0.0014,0.9109
54097,0.0535,-0.0017,0.9082,0.0013,0.9106
54117,0.0491,0.0022,0.9109,0.0014,0.9111
54137,0.0483,-0.0010,0.9082,0.0007,0.9106
54157,0.0483,-0.0012,0.9097,0.0004,0.9107
54177,0.0491,-0.0005,0.9099,0.0002,0.9109
54197,0.0518,-0.0007,0.9055,0.0014,0.9097
54217,0.0493,-0.0012,0.9087,0.0003,0.9098
54237,0.0461,-0.0029,0.9111,0.0015,0.9105
54257,0.0488,0.0015,0.9106,0.0010,0.9110
54277,0.0500,0.0012,0.9104,0.0007,0.9112
54297,0.0452,0.0005,0.9092,0.0012,0.9109
54317,0.0515,-0.0032,0.9063,0.0018,0.9100
54337,0.0474,-0.0002,0.9094,0.0006,0.9102
54357,0.0503,-0.0020,0.9133,0.0015,0.9115
54377,0.0508,0.0027,0.9114,0.0013,0.9119
54397,0.0537,0.0015,0.9109,0.0013,0.9121
54417,0.0508,-0.0020,0.9141,0.0013,0.9131
54437,0.0471,-0.0017,0.9082,0.0016,0.9120
54457,0.0471,0.0015,0.9060,0.0017,0.9106
54477,0.0459,0.0027,0.9126,0.0016,0.9115
54497,0.0491,-0.0015,0.9072,0.0012,0.9106
54517,0.0527,-0.0027,0.9082,0.0016,0.9104
54537,0.0535,0.0012,0.9106,0.0014,0.9109
54557,0.0493,-0.0015,0.9143,0.0016,0.9123
54577,0.0530,-0.0017,0.9060,0.0017,0.9109
54597,0.0483,-0.0042,0.9094,0.0013,0.9108
54617,0.0500,-0.0027,0.9070,0.0008,0.9101
54637,0.0527,-0.0032,0.9097,0.0009,0.9104
54657,0.0510,-0.0022,0.9141,0.0015,0.9119
54677,0.0535,-0.0015,0.9080,0.0011,0.9112
54697,0.0486,-0.0022,0.9080,0.0011,0.9106
54717,0.0510,-0.0027,0.9094,0.0002,0.9107
54737,0.0493,-0.0037,0.9080,0.0007,0.9103
54757,0.0515,-0.0007,0.9111,0.0010,0.9110
54777,0.0491,0.0027,0.9106,0.0016,0.9113
54797,0.0486,0.0027,0.9099,0.0011,0.9113
54817,0.0515,0.0015,0.9126,0.0010,0.9121
54837,0.0500,0.0007,0.9119,0.0004,0.9124
54857,0.0500,-0.0015,0.9048,0.0020,0.9106
54877,0.0496,-0.0015,0.9087,0.0005,0.9104
54897,0.0486,-0.0005,0.9094,0.0004,0.9105
54917,0.0464,-0.0022,0.9138,0.0018,0.9118
54937,0.0510,-0.0049,0.9104,0.0014,0.9118
54957,0.0508,-0.0015,0.9121,0.0007,0.9123
54977,0.0471,0.0032,0.9077,0.0020,0.9113
54997,0.0505,0.0017,0.9114,0.0009,0.9118
55017,0.0525,-0.0010,0.9121,0.0011,0.9123
55037,0.0525,-0.0044,0.9070,0.0019,0.9112
55057,0.0520,-0.0015,0.9094,0.0003,0.9111
55077,0.0479,-0.0022,0.9111,0.0011,0.9115
55097,0.0466,-0.0010,0.9043,0.0021,0.9097
55117,0.0496,0.0012,0.9124,0.0014,0.9109
55137,0.0488,-0.0015,0.9124,0.0009,0.9117
55157,0.0476,0.0022,0.9109,0.0010,0.9118
55177,0.0503,-0.0017,0.9114,0.0008,0.9121
55197,0.0461,-0.0046,0.9104,0.0015,0.9120
55217,0.0496,-0.0010,0.9099,0.0005,0.9117
55237,0.0498,-0.0029,0.9043,0.0019,0.9099
55257,0.0493,-0.0051,0.9116,0.0013,0.9108
55277,0.0510,0.0020,0.9116,0.0017,0.9115
55297,0.0513,-0.0024,0.9077,0.0009,0.9108
55317,0.0491,-0.0027,0.9060,0.0011,0.9098
55337,0.0525,-0.0037,0.9072,0.0010,0.9095
55357,0.0452,-0.0029,0.9067,0.0017,0.9090
55377,0.0503,-0.0002,0.9119,0.0015,0.9103
55397,0.0505,0.0005,0.9106,0.0010,0.9108
55417,0.0491,-0.0024,0.9116,0.0008,0.9114
55437,0.0469,-0.0024,0.9031,0.0023,0.9093
55457,0.0510,0.0042,0.9111,0.0021,0.9103
55477,0.0532,-0.0039,0.9092,0.0016,0.9104
55497,0.0530,-0.0020,0.9063,0.0011,0.9096
55517,0.0481,0.0002,0.9138,0.0020,0.9113
55537,0.0518,-0.0042,0.9109,0.0011,0.9116
55557,0.0496,0.0012,0.9104,0.0010,0.9116
55577,0.0476,-0.0012,0.9116,0.0009,0.9120
55597,0.0503,-0.0017,0.9055,0.0016,0.9105
55617,0.0491,-0.0054,0.9060,0.0016,0.9095
55637,0.0525,0.0010,0.9089,0.0014,0.9098
55657,0.0515,-0.0024,0.9104,0.0007,0.9104
55677,0.0525,-0.0007,0.9077,0.0007,0.9101
55697,0.0498,-0.0022,0.9133,0.0015,0.9115
55717,0.0508,-0.0017,0.9133,0.0010,0.9124
55737,0.0542,-0.0005,0.9089,0.0012,0.9119
55757,0.0474,0.0012,0.9077,0.0017,0.9110
55777,0.0505,-0.0020,0.9070,0.0009,0.9102
55797,0.0498,-0.0017,0.9038,0.0015,0.9087
55817,0.0466,0.0002,0.9080,0.0012,0.9088
55837,0.0483,-0.0046,0.9143,0.0024,0.9109
55857,0.0520,-0.0022,0.9053,0.0016,0.9096
55877,0.0500,0.0007,0.9080,0.0008,0.9095
55897,0.0515,-0.0029,0.9124,0.0014,0.9108
55917,0.0466,-0.0034,0.9063,0.0016,0.9098
55937,0.0479,-0.0020,0.9106,0.0008,0.9104
55957,0.0535,-0.0015,0.9045,0.0020,0.9091
55977,0.0493,-0.0044,0.9133,0.0018,0.9108
55997,0.0488,-0.0039,0.9111,0.0007,0.9113
56017,0.0522,-0.0027,0.9072,0.0011,0.9105
56037,0.0515,-0.0022,0.9094,0.0004,0.9106
56057,0.0525,-0.0002,0.9041,0.0018,0.9091
56077,0.0544,0.0002,0.9092,0.0012,0.9096
56097,0.0488,-0.0024,0.9089,0.0011,0.9098
56117,0.0520,0.0002,0.9045,0.0013,0.9087
56137,0.0493,-0.0024,0.9075,0.0008,0.9087
56157,0.0493,0.0022,0.9080,0.0012,0.9089
56177,0.0488,-0.0032,0.9104,0.0013,0.9097
56197,0.0520,0.0002,0.9077,0.0008,0.9096
56217,0.0522,0.0002,0.9099,0.0008,0.9101
56237,0.0505,-0.0010,0.9080,0.0003,0.9099
56257,0.0483,0.0027,0.9155,0.0025,0.9120
56277,0.0500,-0.0027,0.9080,0.0012,0.9112
56297,0.0503,-0.0020,0.9124,0.0009,0.9119
56317,0.0530,-0.0022,0.9077,0.0013,0.9111
56337,0.0520,0.0022,0.9106,0.0011,0.9114
56357,0.0479,-0.0032,0.9150,0.0020,0.9129
56377,0.0513,-0.0007,0.9080,0.0011,0.9118
56397,0.0547,0.0005,0.9084,0.0014,0.9113
56417,0.0510,-0.0020,0.9097,0.0005,0.9113
56437,0.0479,0.0012,0.9121,0.0015,0.9119
56457,0.0503,-0.0007,0.9048,0.0017,0.9102
56477,0.0496,0.0010,0.9104,0.0007,0.9106
56497,0.0498,0.0049,0.9160,0.0025,0.9127
56517,0.0486,-0.0007,0.9104,0.0008,0.9124
56537,0.0498,0.0012,0.9070,0.0012,0.9112
56557,0.0493,-0.0039,0.9106,0.0015,0.9114
56577,0.0520,-0.0017,0.9092,0.0009,0.9112
56597,0.0518,-0.0032,0.9094,0.0008,0.9111
56617,0.0498,-0.0017,0.9116,0.0006,0.9117
56637,0.0493,-0.0032,0.9063,0.0013,0.9104
56657,0.0557,-0.0010,0.9072,0.0018,0.9100
56677,0.0498,-0.0005,0.9124,0.0014,0.9111
56697,0.0479,-0.0032,0.9070,0.0014,0.9102
56717,0.0483,-0.0029,0.9097,0.0007,0.9105
56737,0.0496,-0.0027,0.9104,0.0004,0.9108
56757,0.0522,-0.0005,0.9036,0.0020,0.9091
56777,0.0488,-0.0034,0.9104,0.0011,0.9099
56797,0.0518,-0.0012,0.9028,0.0018,0.9082
56817,0.0527,-0.0007,0.9099,0.0012,0.9092
56837,0.0508,-0.0056,0.9131,0.0020,0.9108
56857,0.0486,-0.0007,0.9038,0.0019,0.9091
56877,0.0488,-0.0012,0.9016,0.0019,0.9072
56897,0.0503,0.0010,0.9106,0.0017,0.9087
56917,0.0488,-0.0010,0.9102,0.0009,0.9095
56937,0.0491,-0.0046,0.9072,0.0011,0.9092
56957,0.0496,0.0039,0.9084,0.0018,0.9094
56977,0.0510,-0.0012,0.9087,0.0006,0.9096
56997,0.0491,0.0010,0.9067,0.0007,0.9091
57017,0.0479,0.0007,0.9087,0.0007,0.9094
57037,0.0503,0.0012,0.9116,0.0012,0.9105
57057,0.0479,0.0002,0.9177,0.0026,0.9130
57077,0.0532,-0.0010,0.9092,0.0015,0.9123
57097,0.0486,0.0027,0.9058,0.0018,0.9108
57117,0.0503,0.0015,0.9087,0.0003,0.9106
57137,0.0513,0.0002,0.9111,0.0007,0.9112
57157,0.0500,-0.0022,0.9128,0.0013,0.9121
57177,0.0532,-0.0034,0.9023,0.0028,0.9096
57197,0.0505,0.0015,0.9104,0.0010,0.9103
57217,0.0518,-0.0007,0.9087,0.0003,0.9102
57237,0.0488,0.0024,0.9141,0.0019,0.9118
57257,0.0500,0.0022,0.9084,0.0008,0.9112
57277,0.0522,0.0005,0.9114,0.0008,0.9117
57297,0.0515,-0.0049,0.9099,0.0017,0.9116
57317,0.0508,0.0010,0.9111,0.0006,0.9119
57337,0.0542,-0.0071,0.9060,0.0026,0.9106
57357,0.0520,-0.0042,0.9124,0.0011,0.9116
57377,0.0503,0.0005,0.9104,0.0011,0.9116
57397,0.0471,-0.0007,0.9075,0.0016,0.9108
57417,0.0518,-0.0007,0.9070,0.0009,0.9101
57437,0.0530,0.0005,0.9087,0.0009,0.9101
57457,0.0532,-0.0037,0.9109,0.0012,0.9108
57477,0.0483,-0.0039,0.9106,0.0013,0.9111
57497,0.0505,-0.0027,0.9131,0.0010,0.9121
57517,0.0479,-0.0007,0.9104,0.0010,0.9120
57537,0.0469,-0.0005,0.9094,0.0011,0.9116
57557,0.0530,-0.0020,0.9143,0.0017,0.9129
57577,0.0544,0.0007,0.9097,0.0016,0.9124
57597,0.0493,-0.0002,0.9077,0.0012,0.9114
57617,0.0481,0.0017,0.9080,0.0012,0.9107
57637,0.0498,0.0007,0.9126,0.0010,0.9117
57657,0.0503,-0.0022,0.9131,0.0011,0.9125
57677,0.0491,0.0039,0.9119,0.0014,0.9127
57697,0.0503,-0.0017,0.9082,0.0012,0.9118
57717,0.0496,-0.0012,0.9133,0.0010,0.9127
57737,0.0486,-0.0034,0.9092,0.0012,0.9120
57757,0.0503,-0.0010,0.9097,0.0004,0.9117
57777,0.0525,0.0007,0.9119,0.0011,0.9122
57797,0.0486,-0.0027,0.9114,0.0009,0.9124
