timestamp,ax,ay,az,vibration,rms
1437,0.1145,-0.0964,0.9077,0.2760,0.2760
1457,0.0564,-0.0688,0.9060,0.1906,0.4660
1477,0.0105,-0.0344,0.9009,0.1319,0.5961
1497,-0.0181,-0.0083,0.8997,0.0934,0.6865
1517,-0.0273,0.0293,0.8901,0.0652,0.7471
1537,-0.0596,0.0725,0.9014,0.0561,0.7936
1557,-0.0728,0.1082,0.8909,0.0443,0.8243
1577,-0.0620,0.1182,0.8972,0.0332,0.8485
1597,-0.0242,0.1077,0.8982,0.0212,0.8652
1617,0.0149,0.1008,0.9109,0.0225,0.8802
1637,0.0337,0.0823,0.9136,0.0199,0.8912
1657,0.0652,0.0476,0.9148,0.0250,0.8986
1677,0.1116,-0.0037,0.9192,0.0373,0.9051
1697,0.1433,-0.0474,0.9153,0.0417,0.9097
1717,0.1621,-0.0774,0.9224,0.0398,0.9168
1737,0.1577,-0.0957,0.9258,0.0315,0.9238
1757,0.1501,-0.1113,0.9207,0.0250,0.9277
1777,0.1465,-0.1165,0.9207,0.0185,0.9308
1797,0.1240,-0.1123,0.9102,0.0117,0.9290
1817,0.0754,-0.0850,0.9136,0.0165,0.9262
1837,0.0344,-0.0571,0.8999,0.0258,0.9183
1857,-0.0061,-0.0293,0.9043,0.0323,0.9129
1877,-0.0239,0.0034,0.8982,0.0325,0.9073
1897,-0.0364,0.0449,0.8845,0.0347,0.8995
1917,-0.0271,0.0100,0.8955,0.0148,0.8982
1937,-0.0352,0.0513,0.8882,0.0213,0.8952
1957,-0.0757,0.0791,0.9021,0.0290,0.8982
1977,-0.0745,0.1155,0.8909,0.0290,0.8981
1997,-0.0583,0.1162,0.8928,0.0187,0.8989
2017,-0.0305,0.1084,0.9031,0.0118,0.9021
2037,0.0100,0.1050,0.8975,0.0169,0.9022
2057,0.0337,0.0837,0.9202,0.0195,0.9085
2077,0.0615,0.0586,0.9109,0.0229,0.9097
2097,0.0889,0.0173,0.9163,0.0297,0.9119
2117,0.1279,-0.0278,0.9182,0.0385,0.9147
2137,0.1506,-0.0642,0.9128,0.0395,0.9166
2157,0.1553,-0.0847,0.9302,0.0338,0.9243
2177,0.1611,-0.1023,0.9226,0.0287,0.9287
2197,0.1541,-0.1135,0.9114,0.0222,0.9288
2217,0.1475,-0.1226,0.9141,0.0174,0.9300
2237,0.1309,-0.1189,0.9126,0.0109,0.9297
2257,0.0979,-0.0952,0.9104,0.0114,0.9268
2277,0.0542,-0.0720,0.9080,0.0221,0.9219
2297,0.0100,-0.0396,0.9038,0.0316,0.9155
2317,-0.0120,-0.0156,0.9060,0.0314,0.9115
2337,-0.0242,0.0164,0.8936,0.0312,0.9050
2357,-0.0332,0.0486,0.8884,0.0311,0.8994
2377,-0.0701,0.0830,0.9055,0.0365,0.9015
2397,-0.0730,0.1099,0.8909,0.0327,0.8998
2417,-0.0671,0.1226,0.8984,0.0253,0.9018
2437,-0.0691,0.1025,0.8933,0.0129,0.9016
2457,-0.0730,0.1204,0.8999,0.0142,0.9041
2477,-0.0693,0.1245,0.8953,0.0106,0.9047
2497,-0.0315,0.1204,0.8975,0.0105,0.9050
2517,0.0051,0.1057,0.8982,0.0172,0.9044
2537,0.0154,0.0996,0.9104,0.0157,0.9076
2557,0.0310,0.0767,0.9141,0.0178,0.9103
2577,0.0564,0.0576,0.9138,0.0218,0.9118
2597,0.0784,0.0247,0.9219,0.0268,0.9150
2617,0.1150,-0.0056,0.9194,0.0328,0.9171
2637,0.1409,-0.0403,0.9163,0.0357,0.9188
2657,0.1582,-0.0657,0.9187,0.0342,0.9220
2677,0.1604,-0.0784,0.9282,0.0275,0.9281
2697,0.1614,-0.0967,0.9270,0.0239,0.9328
2717,0.1619,-0.1145,0.9216,0.0215,0.9352
2737,0.1599,-0.1116,0.9187,0.0141,0.9361
2757,0.1592,-0.1255,0.9194,0.0137,0.9375
2777,0.1543,-0.1309,0.9189,0.0110,0.9384
2797,0.1472,-0.1304,0.9160,0.0077,0.9379
2817,0.1365,-0.1162,0.9099,0.0051,0.9347
2837,0.1155,-0.1150,0.9128,0.0093,0.9324
2857,0.0823,-0.0906,0.9148,0.0179,0.9292
2877,0.0581,-0.0825,0.9075,0.0203,0.9238
2897,0.0422,-0.0605,0.9023,0.0216,0.9177
2917,0.0244,-0.0508,0.9070,0.0211,0.9145
2937,0.0937,-0.0974,0.9170,0.0106,0.9181
2957,0.0698,-0.0874,0.9155,0.0023,0.9194
2977,0.0562,-0.0769,0.9043,0.0061,0.9163
2997,0.0474,-0.0635,0.8953,0.0094,0.9110
3017,0.0261,-0.0566,0.9026,0.0123,0.9089
3037,0.0105,-0.0454,0.9072,0.0143,0.9085
3057,-0.0046,-0.0344,0.9045,0.0156,0.9072
3077,-0.0112,-0.0251,0.9023,0.0142,0.9056
3097,-0.0129,-0.0168,0.8906,0.0127,0.9010
3117,-0.0217,-0.0068,0.8999,0.0124,0.9006
3137,-0.0276,0.0061,0.8928,0.0130,0.8982
3157,-0.0344,0.0149,0.8911,0.0125,0.8961
3177,-0.0396,0.0198,0.8862,0.0111,0.8933
3197,-0.0408,0.0347,0.8884,0.0116,0.8922
3217,-0.0466,0.0488,0.8896,0.0126,0.8920
3237,-0.0505,0.0618,0.8926,0.0129,0.8930
3257,-0.0613,0.0688,0.8994,0.0126,0.8961
3277,-0.0679,0.0833,0.8950,0.0134,0.8975
3297,-0.0786,0.0847,0.8965,0.0117,0.8993
3317,-0.0845,0.0920,0.8994,0.0110,0.9017
3337,-0.0862,0.1030,0.9016,0.0108,0.9046
3357,-0.0808,0.1106,0.8940,0.0090,0.9044
3377,-0.0764,0.1113,0.8994,0.0063,0.9059
3397,-0.0818,0.1204,0.8853,0.0082,0.9032
3417,-0.0818,0.1228,0.8838,0.0066,0.9010
3437,-0.0769,0.1248,0.8921,0.0046,0.9019
3457,-0.0625,0.0681,0.8938,0.0146,0.9006
3477,-0.0657,0.0740,0.8997,0.0086,0.9019
3497,-0.0757,0.0789,0.9016,0.0048,0.9037
3517,-0.0779,0.0837,0.8977,0.0022,0.9041
3537,-0.0825,0.0913,0.9031,0.0034,0.9063
3557,-0.0911,0.0930,0.9028,0.0047,0.9080
3577,-0.0874,0.0994,0.8972,0.0036,0.9077
3597,-0.0813,0.0989,0.8955,0.0022,0.9068
3617,-0.0845,0.1116,0.8901,0.0057,0.9050
3637,-0.0879,0.1121,0.8857,0.0050,0.9026
3657,-0.0803,0.1145,0.8875,0.0039,0.9013
3677,-0.0806,0.1143,0.8931,0.0025,0.9021
3697,-0.0803,0.1140,0.8865,0.0023,0.9007
3717,-0.0828,0.1167,0.8809,0.0034,0.8982
3737,-0.0845,0.1174,0.8882,0.0017,0.8987
3757,-0.0857,0.1182,0.8850,0.0017,0.8982
3777,-0.0835,0.1230,0.8906,0.0026,0.8996
3797,-0.0852,0.1191,0.8899,0.0009,0.9003
3817,-0.0818,0.1211,0.8992,0.0034,0.9035
3837,-0.0867,0.1138,0.8860,0.0025,0.9017
3857,-0.0852,0.1140,0.8916,0.0011,0.9020
3877,-0.0869,0.1094,0.8950,0.0026,0.9032
3897,-0.0874,0.1025,0.8936,0.0036,0.9033
3917,-0.0862,0.1042,0.8982,0.0026,0.9048
3937,-0.0874,0.1021,0.9023,0.0032,0.9070
3957,-0.0308,-0.0024,0.8879,0.0369,0.8998
3977,-0.0281,-0.0083,0.8962,0.0277,0.8978
3997,-0.0229,-0.0122,0.8999,0.0212,0.8980
4017,-0.0159,-0.0239,0.8979,0.0189,0.8977
4037,-0.0125,-0.0325,0.8999,0.0160,0.8982
4057,-0.0037,-0.0420,0.9004,0.0150,0.8989
4077,0.0095,-0.0496,0.9063,0.0148,0.9012
4097,0.0205,-0.0598,0.9075,0.0149,0.9035
4117,0.0388,-0.0698,0.8992,0.0164,0.9029
4137,0.0513,-0.0835,0.8975,0.0170,0.9025
4157,0.0647,-0.0937,0.9055,0.0170,0.9052
4177,0.0732,-0.1030,0.9133,0.0160,0.9099
4197,0.1023,-0.1182,0.9099,0.0206,0.9134
4217,0.1304,-0.1279,0.9048,0.0231,0.9156
4237,0.1411,-0.1309,0.9070,0.0194,0.9186
4257,0.1504,-0.1443,0.9185,0.0184,0.9252
4277,0.1653,-0.1470,0.9163,0.0170,0.9301
4297,0.1768,-0.1479,0.9197,0.0152,0.9353
4317,0.1855,-0.1423,0.9185,0.0126,0.9388
4337,0.1816,-0.1365,0.9226,0.0078,0.9422
4357,0.1895,-0.1272,0.9226,0.0082,0.9446
4377,0.1836,-0.1226,0.9309,0.0060,0.9482
4397,0.1841,-0.1023,0.9382,0.0100,0.9521
4417,0.1790,-0.0881,0.9180,0.0105,0.9482
4437,0.1702,-0.0642,0.9084,0.0153,0.9414
4457,0.1501,-0.0457,0.9216,0.0174,0.9391
4477,0.1238,-0.0100,0.9241,0.0254,0.9363
4497,0.0107,0.1074,0.9185,0.0664,0.9273
4517,-0.0017,0.1262,0.9033,0.0534,0.9192
4537,-0.0303,0.1382,0.9021,0.0458,0.9147
4557,-0.0479,0.1445,0.9014,0.0372,0.9127
4577,-0.0691,0.1509,0.8955,0.0324,0.9108
4597,-0.0898,0.1516,0.8970,0.0280,0.9108
4617,-0.0964,0.1455,0.8921,0.0207,0.9097
4637,-0.0942,0.1221,0.8945,0.0129,0.9089
4657,-0.0894,0.0945,0.9072,0.0123,0.9110
4677,-0.0669,0.0618,0.8857,0.0171,0.9045
4697,-0.0535,0.0234,0.8843,0.0238,0.8983
4717,-0.0286,-0.0120,0.8955,0.0289,0.8965
4737,-0.0115,-0.0466,0.9011,0.0319,0.8970
4757,0.0361,-0.0715,0.9016,0.0363,0.8977
4777,0.0728,-0.0947,0.9065,0.0381,0.9009
4797,0.1101,-0.1204,0.9136,0.0403,0.9070
4817,0.1475,-0.1396,0.9099,0.0405,0.9126
4837,0.1741,-0.1560,0.9133,0.0377,0.9199
4857,0.1912,-0.1597,0.9104,0.0312,0.9260
4877,0.1797,-0.1418,0.9421,0.0192,0.9388
4897,0.2017,-0.1318,0.9189,0.0173,0.9418
4917,0.1973,-0.1101,0.9255,0.0123,0.9449
4937,0.1836,-0.0759,0.9248,0.0146,0.9449
4957,0.1484,-0.0388,0.9258,0.0226,0.9423
4977,0.1138,0.0112,0.9229,0.0338,0.9372
4997,0.0686,0.0547,0.9141,0.0421,0.9293
5017,0.0369,0.0896,0.9153,0.0435,0.9243
5037,-0.0686,0.1570,0.8962,0.0674,0.9150
5057,-0.0925,0.1531,0.8979,0.0520,0.9117
5077,-0.0999,0.1460,0.8813,0.0379,0.9060
5097,-0.1006,0.1121,0.8984,0.0228,0.9069
5117,-0.0684,0.0647,0.8850,0.0143,0.9016
5137,-0.0525,0.0142,0.8860,0.0238,0.8967
5157,-0.0183,-0.0344,0.8982,0.0329,0.8960
5177,0.0232,-0.0684,0.9063,0.0378,0.8981
5197,0.0713,-0.1082,0.9109,0.0447,0.9022
5217,0.1265,-0.1294,0.9099,0.0475,0.9070
5237,0.1641,-0.1589,0.9185,0.0477,0.9161
5257,0.1868,-0.1580,0.9216,0.0388,0.9256
5277,0.1987,-0.1450,0.9214,0.0286,0.9331
5297,0.1938,-0.1296,0.9270,0.0176,0.9396
5317,0.1880,-0.1006,0.9287,0.0125,0.9434
5337,0.1670,-0.0654,0.9253,0.0153,0.9429
5357,0.1279,-0.0110,0.9238,0.0292,0.9388
5377,0.0786,0.0488,0.9172,0.0433,0.9314
5397,0.0347,0.0850,0.9099,0.0469,0.9236
5417,-0.0049,0.1301,0.9060,0.0508,0.9178
5437,-0.0479,0.1460,0.8921,0.0483,0.9111
5457,-0.0803,0.1592,0.8982,0.0436,0.9100
5477,-0.1042,0.1580,0.8914,0.0365,0.9087
5497,-0.1047,0.1172,0.9021,0.0221,0.9102
5517,-0.0679,0.0693,0.8845,0.0155,0.9038
5537,-0.0469,0.0012,0.8892,0.0305,0.8986
5557,0.1025,-0.1233,0.9155,0.0754,0.9006
5577,0.1633,-0.1538,0.9084,0.0717,0.9047
5597,0.1946,-0.1580,0.9194,0.0582,0.9151
5617,0.2058,-0.1396,0.9307,0.0409,0.9278
5637,0.1980,-0.1091,0.9390,0.0238,0.9386
5657,0.1758,-0.0659,0.9146,0.0132,0.9369
5677,0.1287,-0.0083,0.9231,0.0253,0.9347
5697,0.0681,0.0586,0.9177,0.0439,0.9285
5717,0.0022,0.1128,0.9221,0.0556,0.9248
5737,-0.0332,0.1497,0.9011,0.0546,0.9178
5757,-0.0798,0.1628,0.9016,0.0510,0.9150
5777,-0.1030,0.1562,0.8896,0.0406,0.9112
5797,-0.1057,0.1106,0.9033,0.0249,0.9119
5817,-0.0693,0.0332,0.8835,0.0244,0.9037
5837,-0.0239,-0.0305,0.8926,0.0362,0.8989
5857,0.0498,-0.0916,0.9038,0.0515,0.8988
5877,0.1223,-0.1328,0.9050,0.0594,0.9015
5897,0.1855,-0.1587,0.9102,0.0610,0.9092
5917,0.2056,-0.1453,0.9248,0.0459,0.9216
5937,0.2026,-0.1248,0.9319,0.0293,0.9327
5957,0.1890,-0.0823,0.9241,0.0162,0.9367
5977,0.1270,-0.0161,0.9221,0.0256,0.9341
5997,0.0603,0.0740,0.9141,0.0510,0.9264
6017,-0.0007,0.1194,0.9150,0.0574,0.9211
6037,-0.0500,0.1614,0.8977,0.0597,0.9143
6057,-0.0989,0.1675,0.9014,0.0538,0.9130
6077,-0.1099,0.1372,0.8965,0.0361,0.9115
6097,-0.0222,-0.0442,0.9053,0.0450,0.9074
6117,0.0613,-0.1086,0.9102,0.0576,0.9065
6137,0.1465,-0.1431,0.9089,0.0640,0.9089
6157,0.2012,-0.1592,0.9153,0.0603,0.9170
6177,0.2200,-0.1436,0.9160,0.0444,0.9254
6197,0.2070,-0.1072,0.9341,0.0247,0.9360
6217,0.1528,-0.0415,0.9209,0.0170,0.9352
6237,0.0852,0.0461,0.9214,0.0432,0.9302
6257,0.0042,0.1125,0.9175,0.0605,0.9239
6277,-0.0432,0.1494,0.8962,0.0604,0.9150
6297,-0.0989,0.1680,0.8933,0.0584,0.9104
6317,-0.1125,0.1428,0.8906,0.0404,0.9079
6337,-0.0786,0.0757,0.8850,0.0176,0.9027
6357,-0.0432,-0.0085,0.8889,0.0308,0.8977
6377,0.0337,-0.0864,0.9026,0.0505,0.8973
6397,0.1248,-0.1377,0.9053,0.0639,0.9001
6417,0.1863,-0.1660,0.9207,0.0643,0.9113
6437,0.2163,-0.1465,0.9268,0.0494,0.9240
6457,0.2063,-0.1121,0.9412,0.0292,0.9370
6477,0.1680,-0.0488,0.9202,0.0168,0.9365
6497,0.0825,0.0391,0.9189,0.0421,0.9304
6517,0.0085,0.1111,0.9172,0.0598,0.9240
6537,-0.0471,0.1558,0.8982,0.0632,0.9156
6557,-0.0999,0.1675,0.8955,0.0582,0.9115
6577,-0.1191,0.1316,0.8943,0.0404,0.9095
6597,-0.0835,0.0540,0.8862,0.0210,0.9036
6617,0.0867,-0.1238,0.9128,0.0744,0.9031
6637,0.1775,-0.1697,0.9138,0.0799,0.9081
6657,0.2078,-0.1550,0.9236,0.0600,0.9192
6677,0.2114,-0.1174,0.9421,0.0384,0.9337
6697,0.1775,-0.0513,0.9155,0.0174,0.9334
6717,0.0811,0.0449,0.9238,0.0408,0.9298
6737,0.0012,0.1230,0.9214,0.0613,0.9250
6757,-0.0645,0.1624,0.8950,0.0653,0.9157
6777,-0.1079,0.1704,0.8950,0.0571,0.9121
6797,-0.1089,0.1052,0.8972,0.0324,0.9101
6817,-0.0596,0.0085,0.8918,0.0271,0.9043
6837,0.0354,-0.0835,0.9045,0.0512,0.9023
6857,0.1453,-0.1462,0.9041,0.0707,0.9035
6877,0.2112,-0.1689,0.9167,0.0689,0.9134
6897,0.2275,-0.1406,0.9216,0.0480,0.9246
6917,0.1873,-0.0757,0.9192,0.0187,0.9292
6937,0.1018,0.0269,0.9202,0.0365,0.9266
6957,0.0054,0.1187,0.9143,0.0639,0.9200
6977,-0.0664,0.1660,0.8997,0.0697,0.9130
6997,-0.1145,0.1729,0.8916,0.0611,0.9090
7017,-0.0967,0.0908,0.8889,0.0288,0.9048
7037,-0.0327,-0.0225,0.8987,0.0330,0.9018
7057,0.0645,-0.1184,0.9150,0.0595,0.9043
7077,0.1736,-0.1624,0.9185,0.0725,0.9111
7097,0.2273,-0.1541,0.9199,0.0622,0.9212
7117,0.2166,-0.1082,0.9307,0.0355,0.9319
7137,0.1379,-0.0095,0.9204,0.0235,0.9309
7157,0.0295,0.0989,0.9155,0.0587,0.9237
7177,-0.1128,0.1775,0.8884,0.0877,0.9107
7197,-0.0959,0.0918,0.8870,0.0438,0.9041
7217,-0.0381,-0.0310,0.8960,0.0288,0.9010
7237,0.0698,-0.1208,0.9124,0.0518,0.9042
7257,0.1909,-0.1694,0.9182,0.0710,0.9127
7277,0.2322,-0.1523,0.9260,0.0571,0.9251
7297,0.2014,-0.0742,0.9207,0.0261,0.9304
7317,0.0898,0.0356,0.9255,0.0393,0.9285
7337,-0.0134,0.1379,0.8984,0.0700,0.9165
7357,-0.0986,0.1787,0.8984,0.0752,0.9107
7377,-0.1228,0.1375,0.9080,0.0514,0.9121
7397,-0.0676,0.0188,0.8835,0.0256,0.9036
7417,0.0364,-0.0937,0.8997,0.0514,0.9007
7437,0.1641,-0.1655,0.9146,0.0759,0.9064
7457,0.2307,-0.1570,0.9277,0.0674,0.9198
7477,0.2170,-0.0930,0.9309,0.0366,0.9305
7497,0.1094,0.0193,0.9216,0.0306,0.9287
7517,-0.0032,0.1257,0.9031,0.0657,0.9182
7537,-0.0955,0.1743,0.8977,0.0754,0.9113
7557,-0.1299,0.1416,0.9053,0.0554,0.9117
7577,-0.0652,0.0139,0.8887,0.0255,0.9047
7597,0.0483,-0.1057,0.9028,0.0552,0.9025
7617,0.1812,-0.1714,0.9185,0.0787,0.9096
7637,0.2351,-0.1479,0.9268,0.0641,0.9222
7657,0.2000,-0.0779,0.9241,0.0287,0.9292
7677,0.0798,0.0481,0.9180,0.0406,0.9252
7697,-0.0327,0.1545,0.8953,0.0737,0.9134
7717,-0.1128,0.1084,0.8872,0.0621,0.9047
7737,-0.0386,-0.0295,0.8992,0.0281,0.9024
7757,0.1028,-0.1379,0.9087,0.0574,0.9050
7777,0.2185,-0.1687,0.9180,0.0710,0.9150
7797,0.2275,-0.1194,0.9395,0.0458,0.9304
7817,0.1396,-0.0103,0.9282,0.0224,0.9323
7837,0.0071,0.1213,0.9187,0.0665,0.9251
7857,-0.0977,0.1777,0.9036,0.0801,0.9172
7877,-0.1335,0.1365,0.8984,0.0578,0.9134
7897,-0.0537,-0.0042,0.8962,0.0269,0.9078
7917,0.0828,-0.1318,0.9099,0.0639,0.9072
7937,0.2141,-0.1716,0.9194,0.0802,0.9150
7957,0.2285,-0.1184,0.9380,0.0523,0.9293
7977,0.1357,0.0024,0.9202,0.0234,0.9288
7997,-0.0046,0.1353,0.9041,0.0677,0.9186
8017,-0.1121,0.1853,0.8948,0.0802,0.9110
8037,-0.1055,0.1062,0.8850,0.0423,0.9047
8057,-0.0269,-0.0435,0.8994,0.0352,0.9020
8077,0.1377,-0.1523,0.9053,0.0738,0.9029
8097,0.2329,-0.1602,0.9253,0.0748,0.9157
8117,0.2197,-0.0879,0.9265,0.0400,0.9260
8137,0.0781,0.0620,0.9148,0.0422,0.9220
8157,-0.0605,0.1626,0.9031,0.0780,0.9136
8177,-0.1255,0.1655,0.8870,0.0700,0.9065
8197,-0.0757,0.0242,0.8901,0.0281,0.9016
8217,0.0542,-0.1194,0.9158,0.0571,0.9046
8237,0.2358,-0.1414,0.9360,0.0828,0.9178
8257,0.1729,-0.0269,0.9177,0.0303,0.9216
8277,0.0129,0.1182,0.9185,0.0536,0.9193
8297,-0.1089,0.1851,0.8962,0.0766,0.9125
8317,-0.1167,0.1135,0.8867,0.0444,0.9067
8337,-0.0222,-0.0513,0.8984,0.0388,0.9028
8357,0.1528,-0.1660,0.9111,0.0807,0.9054
8377,0.2439,-0.1604,0.9226,0.0763,0.9171
8397,0.1968,-0.0583,0.9187,0.0307,0.9233
8417,0.0364,0.0962,0.9202,0.0546,0.9203
8437,-0.0952,0.1855,0.9014,0.0837,0.9128
8457,-0.1304,0.1292,0.8962,0.0573,0.9092
8477,-0.0403,-0.0396,0.9053,0.0342,0.9071
8497,0.1450,-0.1643,0.9006,0.0781,0.9052
8517,0.2417,-0.1570,0.9219,0.0754,0.9166
8537,0.2014,-0.0652,0.9204,0.0326,0.9237
8557,0.0374,0.0964,0.9243,0.0550,0.9218
8577,-0.0986,0.1819,0.8960,0.0841,0.9121
8597,-0.1279,0.1201,0.9001,0.0554,0.9097
8617,-0.0315,-0.0481,0.9028,0.0350,0.9066
8637,0.1548,-0.1680,0.9106,0.0791,0.9084
8657,0.2473,-0.1521,0.9260,0.0741,0.9205
8677,0.1763,-0.0427,0.9236,0.0245,0.9260
8697,0.0122,0.1213,0.9187,0.0632,0.9212
8717,-0.1145,0.1838,0.8896,0.0836,0.9106
8737,-0.1106,0.0876,0.8816,0.0437,0.9029
8757,0.0134,-0.0859,0.8975,0.0453,0.8998
8777,0.1897,-0.1772,0.9197,0.0831,0.9081
8797,0.2405,-0.1279,0.9458,0.0632,0.9266
8817,0.0056,0.1216,0.9189,0.0645,0.9215
8837,-0.1201,0.1846,0.8945,0.0837,0.9125
8857,-0.1055,0.0754,0.8835,0.0390,0.9047
8877,0.0310,-0.1025,0.8967,0.0500,0.9010
8897,0.2139,-0.1807,0.9155,0.0866,0.9087
8917,0.2344,-0.1125,0.9324,0.0559,0.9229
8937,0.1006,0.0378,0.9250,0.0320,0.9241
8957,-0.0640,0.1694,0.8982,0.0808,0.9135
8977,-0.1472,0.1543,0.8977,0.0726,0.9095
8997,-0.0505,-0.0273,0.8936,0.0311,0.9041
9017,0.1411,-0.1560,0.9102,0.0750,0.9060
9037,0.2458,-0.1597,0.9275,0.0773,0.9189
9057,0.1836,-0.0352,0.9287,0.0284,0.9265
9077,0.0024,0.1265,0.9116,0.0649,0.9194
9097,-0.1323,0.1855,0.8999,0.0860,0.9126
9117,-0.0964,0.0444,0.8845,0.0360,0.9045
9137,0.0566,-0.1243,0.9126,0.0572,0.9058
9157,0.2285,-0.1765,0.9216,0.0850,0.9150
9177,0.2183,-0.0867,0.9258,0.0449,0.9247
9197,0.0498,0.0857,0.9238,0.0491,0.9230
9217,-0.1055,0.1829,0.8997,0.0858,0.9140
9237,-0.1211,0.1018,0.8879,0.0510,0.9070
9257,0.0190,-0.0916,0.8948,0.0464,0.9020
9277,0.2097,-0.1814,0.9167,0.0866,0.9095
9297,0.2412,-0.1125,0.9285,0.0581,0.9225
9317,0.0833,0.0671,0.9194,0.0408,0.9214
9337,-0.0884,0.1858,0.8999,0.0861,0.9125
9357,-0.1226,0.1206,0.8794,0.0575,0.9033
9377,0.0061,-0.0701,0.8994,0.0400,0.9009
9397,0.2510,-0.1519,0.9321,0.0924,0.9136
9417,0.1602,-0.0010,0.9260,0.0274,0.9206
9437,-0.0354,0.1514,0.8918,0.0662,0.9104
9457,-0.1458,0.1609,0.8879,0.0732,0.9046
9477,-0.0581,-0.0105,0.8889,0.0297,0.8994
9497,0.1531,-0.1650,0.9119,0.0817,0.9030
9517,0.2485,-0.1523,0.9421,0.0773,0.9212
9537,0.1340,0.0093,0.9285,0.0234,0.9256
9557,-0.0569,0.1704,0.8955,0.0801,0.9138
9577,-0.1462,0.1521,0.9028,0.0725,0.9111
9597,-0.0344,-0.0461,0.9023,0.0341,0.9076
9617,0.1775,-0.1846,0.9119,0.0860,0.9102
9637,0.2454,-0.1279,0.9421,0.0672,0.9266
9657,0.0952,0.0593,0.9263,0.0367,0.9269
9677,-0.0891,0.1792,0.8962,0.0844,0.9153
9697,-0.1272,0.1157,0.8816,0.0577,0.9059
9717,0.0239,-0.0991,0.9004,0.0485,0.9029
9737,0.2322,-0.1802,0.9192,0.0900,0.9117
9757,0.2239,-0.0796,0.9233,0.0471,0.9216
9777,0.0242,0.1143,0.9209,0.0582,0.9193
9797,-0.1370,0.1838,0.8918,0.0886,0.9098
9817,-0.0913,0.0247,0.8831,0.0356,0.9017
9837,0.1130,-0.1484,0.9082,0.0689,0.9033
9857,0.2539,-0.1548,0.9309,0.0810,0.9178
9877,0.1560,-0.0081,0.9241,0.0239,0.9229
9897,-0.0574,0.1655,0.8977,0.0806,0.9122
9917,-0.1492,0.1431,0.9021,0.0732,0.9094
9937,-0.0186,-0.0625,0.9006,0.0363,0.9058
9957,0.2039,-0.1870,0.9172,0.0889,0.9117
9977,0.2466,-0.1016,0.9338,0.0603,0.9254
9997,0.0459,0.0969,0.9214,0.0511,0.9227
10017,-0.1252,0.1875,0.8958,0.0891,0.9129
10037,-0.1013,0.0415,0.8813,0.0398,0.9035
10057,0.2239,-0.1775,0.9290,0.0975,0.9125
10077,0.2280,-0.0769,0.9255,0.0535,0.9222
10097,0.0176,0.1250,0.9106,0.0562,0.9174
10117,-0.1392,0.1870,0.8860,0.0853,0.9077
10137,-0.0728,0.0010,0.8865,0.0331,0.9008
10157,0.1560,-0.1724,0.9180,0.0824,0.9062
10177,0.2517,-0.1299,0.9470,0.0728,0.9250
10197,0.1008,0.0605,0.9280,0.0343,0.9267
10217,-0.1069,0.1812,0.8953,0.0872,0.9149
10237,-0.1169,0.0723,0.8875,0.0485,0.9069
10257,0.0662,-0.1372,0.9114,0.0605,0.9074
10277,0.2549,-0.1655,0.9268,0.0867,0.9188
10297,0.1672,-0.0176,0.9229,0.0266,0.9237
10317,-0.0588,0.1594,0.8989,0.0794,0.9130
10337,-0.1440,0.1360,0.8865,0.0711,0.9051
10357,0.0112,-0.0864,0.8940,0.0422,0.9008
10377,0.2239,-0.1890,0.9177,0.0897,0.9097
10397,0.2192,-0.0618,0.9194,0.0454,0.9185
10417,0.0078,0.1387,0.9045,0.0657,0.9120
10437,-0.1465,0.1672,0.8872,0.0844,0.9037
10457,-0.0503,-0.0347,0.9009,0.0327,0.9021
10477,0.1904,-0.1836,0.9182,0.0865,0.9089
10497,0.2522,-0.0959,0.9297,0.0627,0.9221
10517,0.0454,0.1062,0.9231,0.0523,0.9211
10537,-0.1340,0.1909,0.8921,0.0904,0.9110
10557,-0.0859,0.0122,0.8831,0.0362,0.9023
10577,0.1548,-0.1841,0.9165,0.0835,0.9072
10597,0.2554,-0.1272,0.9363,0.0718,0.9227
10617,0.0701,0.0825,0.9167,0.0431,0.9205
10637,-0.1365,0.1941,0.8977,0.0936,0.9118
10657,-0.0879,0.0195,0.8875,0.0356,0.9042
10677,0.2351,-0.1724,0.9304,0.0972,0.9141
10697,0.1860,-0.0176,0.9250,0.0368,0.9214
10717,-0.0469,0.1575,0.8914,0.0702,0.9106
10737,-0.1423,0.1306,0.8914,0.0668,0.9053
10757,0.0286,-0.1057,0.9082,0.0510,0.9048
10777,0.2478,-0.1763,0.9204,0.0918,0.9139
10797,0.1821,-0.0154,0.9282,0.0327,0.9223
10817,-0.0654,0.1694,0.8926,0.0813,0.9105
10837,-0.1328,0.1157,0.8875,0.0634,0.9036
10857,0.0476,-0.1218,0.9124,0.0543,0.9053
10877,0.2544,-0.1682,0.9209,0.0881,0.9153
10897,0.1550,0.0090,0.9180,0.0273,0.9191
10917,-0.0850,0.1782,0.9009,0.0856,0.9107
10937,-0.1299,0.0852,0.8816,0.0568,0.9019
10957,0.0793,-0.1509,0.9109,0.0646,0.9041
10977,0.2529,-0.1555,0.9380,0.0825,0.9201
10997,0.1174,0.0459,0.9253,0.0316,0.9230
11017,-0.1174,0.1846,0.8962,0.0905,0.9125
11037,-0.1069,0.0427,0.8770,0.0434,0.9017
11057,0.1326,-0.1721,0.9124,0.0763,0.9052
11077,0.2568,-0.1250,0.9407,0.0742,0.9223
11097,0.0645,0.0881,0.9180,0.0441,0.9205
11117,-0.1409,0.1829,0.8923,0.0908,0.9104
11137,-0.0679,-0.0139,0.8960,0.0324,0.9055
11157,0.1892,-0.1855,0.9192,0.0870,0.9115
11177,0.2415,-0.0840,0.9294,0.0588,0.9232
11197,0.0115,0.1416,0.9016,0.0647,0.9147
11217,-0.1580,0.1594,0.8906,0.0849,0.9066
11237,-0.0010,-0.0820,0.8989,0.0406,0.9033
11257,0.2412,-0.1848,0.9243,0.0924,0.9139
11277,0.1824,-0.0193,0.9270,0.0333,0.9220
11297,-0.1453,0.1831,0.8792,0.1016,0.9051
11317,-0.0505,-0.0400,0.9006,0.0321,0.9031
11337,0.2144,-0.1890,0.9192,0.0858,0.9120
11357,0.2158,-0.0540,0.9302,0.0444,0.9231
11377,-0.0378,0.1599,0.8982,0.0783,0.9123
11397,-0.1404,0.1235,0.8845,0.0714,0.9033
11417,0.0464,-0.1243,0.9072,0.0523,0.9038
11437,0.2612,-0.1648,0.9233,0.0875,0.9156
11457,0.1211,0.0393,0.9287,0.0298,0.9211
11477,-0.1245,0.1873,0.9001,0.0929,0.9121
11497,-0.0933,0.0249,0.8853,0.0387,0.9038
11517,0.1636,-0.1809,0.9163,0.0821,0.9087
11537,0.2510,-0.0884,0.9294,0.0644,0.9213
11557,0.0115,0.1272,0.9126,0.0598,0.9168
11577,-0.1631,0.1501,0.8987,0.0847,0.9103
11597,0.0083,-0.0977,0.8965,0.0440,0.9053
11617,0.2495,-0.1731,0.9194,0.0904,0.9143
11637,0.1487,0.0164,0.9197,0.0287,0.9185
11657,-0.1135,0.1829,0.8997,0.0904,0.9101
11677,-0.1045,0.0339,0.8835,0.0429,0.9018
11697,0.1609,-0.1868,0.9177,0.0832,0.9078
11717,0.2476,-0.0908,0.9294,0.0639,0.9205
11737,0.0034,0.1440,0.9041,0.0657,0.9135
11757,-0.1543,0.1375,0.8899,0.0791,0.9055
11777,0.0286,-0.1169,0.9099,0.0497,0.9060
11797,0.2615,-0.1689,0.9170,0.0899,0.9149
11817,0.1147,0.0642,0.9255,0.0362,0.9193
11837,-0.1389,0.1934,0.8940,0.0947,0.9096
11857,-0.0696,-0.0171,0.8879,0.0347,0.9025
11877,0.2065,-0.1936,0.9204,0.0915,0.9104
11897,0.2156,-0.0420,0.9321,0.0473,0.9220
11917,-0.1445,0.1846,0.8843,0.1015,0.9067
11937,-0.0454,-0.0481,0.8945,0.0324,0.9024
11957,0.2344,-0.1870,0.9229,0.0892,0.9132
11977,0.1760,-0.0154,0.9214,0.0323,0.9195
11997,-0.0947,0.1873,0.9050,0.0914,0.9117
12017,-0.1108,0.0364,0.8792,0.0480,0.9014
12037,0.1611,-0.1860,0.9158,0.0812,0.9073
12057,0.2388,-0.0850,0.9365,0.0600,0.9220
12077,-0.0244,0.1575,0.9014,0.0734,0.9132
12097,-0.1357,0.1177,0.8816,0.0689,0.9030
12117,0.0906,-0.1533,0.9075,0.0645,0.9043
12137,0.2634,-0.1296,0.9399,0.0785,0.9214
12157,0.0400,0.1223,0.9216,0.0547,0.9204
12177,-0.1609,0.1611,0.8936,0.0875,0.9111
12197,0.0166,-0.1086,0.9023,0.0476,0.9076
12217,0.2585,-0.1665,0.9226,0.0898,0.9173
12237,0.1069,0.0693,0.9189,0.0359,0.9188
12257,-0.1392,0.1870,0.8884,0.0921,0.9079
12277,-0.0356,-0.0559,0.8945,0.0357,0.9030
12297,0.2456,-0.1833,0.9231,0.0939,0.9132
12317,0.1455,0.0303,0.9233,0.0305,0.9187
12337,-0.1360,0.1873,0.8972,0.0942,0.9098
12357,-0.0681,-0.0208,0.8977,0.0344,0.9055
12377,0.2202,-0.1838,0.9219,0.0909,0.9134
12397,0.1794,0.0046,0.9226,0.0369,0.9197
12417,-0.1184,0.1902,0.8982,0.0923,0.9107
12437,-0.0823,-0.0042,0.8940,0.0375,0.9050
12457,0.2148,-0.1902,0.9148,0.0916,0.9108
12477,0.1953,-0.0149,0.9226,0.0403,0.9186
12497,-0.1121,0.1877,0.8977,0.0924,0.9093
12517,-0.0874,0.0100,0.8875,0.0390,0.9021
12537,0.2053,-0.1909,0.9207,0.0898,0.9103
12557,0.0627,0.1104,0.9204,0.0448,0.9135
12577,-0.1587,0.1577,0.8921,0.0806,0.9070
12597,0.0281,-0.1208,0.9102,0.0527,0.9069
12617,0.2625,-0.1438,0.9458,0.0890,0.9233
12637,0.0496,0.1130,0.9226,0.0479,0.9227
12657,-0.1587,0.1555,0.8918,0.0835,0.9127
12677,0.0481,-0.1294,0.9045,0.0553,0.9095
12697,0.2676,-0.1396,0.9448,0.0862,0.9257
12717,0.0408,0.1272,0.9048,0.0541,0.9187
12737,-0.1582,0.1357,0.8882,0.0808,0.9084
12757,0.0784,-0.1445,0.9036,0.0610,0.9066
12777,0.2693,-0.1167,0.9338,0.0794,0.9209
12797,0.0115,0.1438,0.8997,0.0622,0.9131
12817,-0.1445,0.1145,0.8801,0.0727,0.9021
12837,0.1165,-0.1685,0.9026,0.0714,0.9027
12857,0.2617,-0.0869,0.9331,0.0699,0.9181
12877,-0.0391,0.1675,0.8987,0.0762,0.9098
12897,-0.1375,0.0676,0.8796,0.0623,0.8997
12917,0.1609,-0.1875,0.9143,0.0822,0.9055
12937,0.2307,-0.0591,0.9312,0.0554,0.9187
12957,-0.0796,0.1824,0.8948,0.0867,0.9085
12977,-0.1116,0.0244,0.8787,0.0490,0.8987
12997,0.2065,-0.1885,0.9194,0.0894,0.9076
13017,0.1890,-0.0015,0.9182,0.0397,0.9147
13037,-0.1223,0.1936,0.8938,0.0942,0.9057
13057,-0.0652,-0.0437,0.8975,0.0387,0.9023
13077,0.2471,-0.1851,0.9290,0.0946,0.9146
13097,0.1287,0.0652,0.9304,0.0372,0.9210
13117,-0.1504,0.1848,0.8853,0.0943,0.9084
13137,0.0093,-0.1033,0.8855,0.0456,0.9007
13157,0.2615,-0.1497,0.9353,0.0870,0.9164
13177,-0.0891,0.1846,0.8992,0.0871,0.9085
13197,-0.0935,-0.0042,0.8821,0.0406,0.9000
13217,0.2305,-0.1897,0.9121,0.0934,0.9072
13237,0.1545,0.0366,0.9155,0.0362,0.9122
13257,-0.1467,0.1848,0.8828,0.0952,0.9010
13277,-0.0149,-0.0940,0.8894,0.0420,0.8968
13297,0.2751,-0.1528,0.9285,0.0922,0.9118
13317,0.0496,0.1157,0.9170,0.0500,0.9128
13337,-0.1553,0.1326,0.8882,0.0803,0.9041
13357,0.1169,-0.1592,0.9084,0.0686,0.9058
13377,0.2571,-0.0781,0.9387,0.0681,0.9217
13397,-0.0652,0.1848,0.8943,0.0841,0.9108
13417,-0.1111,0.0210,0.8838,0.0503,0.9017
13437,0.2253,-0.1858,0.9170,0.0921,0.9095
13457,0.1550,0.0276,0.9231,0.0322,0.9163
13477,-0.1453,0.1870,0.8875,0.0952,0.9054
13497,0.0029,-0.1050,0.8979,0.0451,0.9024
13517,0.2683,-0.1406,0.9470,0.0872,0.9213
13537,0.0303,0.1379,0.9038,0.0575,0.9152
13557,-0.1448,0.1008,0.8821,0.0715,0.9039
13577,0.1555,-0.1870,0.9172,0.0808,0.9093
13597,0.2202,-0.0337,0.9263,0.0506,0.9193
13617,-0.1191,0.1892,0.8962,0.0939,0.9094
13637,-0.0515,-0.0486,0.8992,0.0365,0.9054
13657,0.2642,-0.1699,0.9158,0.0935,0.9136
13677,0.0657,0.1118,0.9233,0.0473,0.9164
13697,-0.1545,0.1306,0.8843,0.0806,0.9053
13717,0.1243,-0.1753,0.9187,0.0736,0.9100
13737,0.2402,-0.0532,0.9280,0.0598,0.9208
13757,-0.1050,0.1846,0.8979,0.0903,0.9110
13777,-0.0635,-0.0386,0.8943,0.0381,0.9051
13797,0.2588,-0.1736,0.9216,0.0933,0.9149
13817,0.0706,0.1123,0.9216,0.0473,0.9170
13837,-0.1560,0.1294,0.8887,0.0807,0.9070
13857,0.2476,-0.1794,0.9216,0.0974,0.9146
13877,0.0969,0.0784,0.9172,0.0315,0.9167
13897,-0.1672,0.1418,0.8916,0.0864,0.9076
13917,0.1052,-0.1672,0.9016,0.0703,0.9059
13937,0.2483,-0.0659,0.9338,0.0652,0.9198
13957,-0.0996,0.1907,0.8960,0.0902,0.9099
13977,-0.0757,-0.0410,0.8918,0.0420,0.9035
13997,0.2698,-0.1711,0.9209,0.0965,0.9136
14017,0.0549,0.1184,0.9177,0.0493,0.9145
14037,-0.1497,0.1133,0.8772,0.0757,0.9019
14057,0.1516,-0.1836,0.9143,0.0792,0.9070
14077,0.2124,-0.0181,0.9312,0.0490,0.9187
14097,-0.1304,0.1892,0.8926,0.0946,0.9082
14117,-0.0129,-0.0989,0.8928,0.0436,0.9028
14137,0.2698,-0.1350,0.9465,0.0865,0.9215
14157,0.0007,0.1577,0.8911,0.0665,0.9109
14177,-0.1274,0.0459,0.8806,0.0591,0.9005
14197,0.2183,-0.1890,0.9177,0.0905,0.9089
14217,0.1475,0.0549,0.9272,0.0368,0.9168
14237,-0.1648,0.1567,0.8906,0.0926,0.9066
14257,0.0708,-0.1492,0.9028,0.0590,0.9055
14277,0.2563,-0.0691,0.9321,0.0694,0.9190
14297,-0.0930,0.1890,0.8967,0.0882,0.9097
14317,-0.0664,-0.0420,0.8938,0.0399,0.9039
14337,0.2688,-0.1638,0.9292,0.0942,0.9165
14357,0.0435,0.1296,0.9124,0.0530,0.9148
14377,-0.1438,0.0823,0.8811,0.0695,0.9031
14397,0.1802,-0.1941,0.9199,0.0852,0.9104
14417,0.1716,0.0259,0.9248,0.0386,0.9178
14437,-0.1499,0.1750,0.8801,0.0936,0.9042
14457,0.0540,-0.1421,0.9087,0.0556,0.9054
14477,0.2610,-0.0803,0.9331,0.0724,0.9193
14497,-0.0806,0.1919,0.9058,0.0868,0.9128
14517,-0.0652,-0.0386,0.9019,0.0398,0.9084
14537,0.2617,-0.1670,0.9287,0.0923,0.9195
14557,0.0308,0.1292,0.9114,0.0540,0.9162
14577,-0.0430,-0.0654,0.8972,0.0410,0.9094
14597,0.2654,-0.1423,0.9492,0.0799,0.9282
14617,0.0017,0.1516,0.8997,0.0687,0.9175
14637,-0.1345,0.0432,0.8806,0.0642,0.9046
14657,0.2358,-0.1917,0.9170,0.0925,0.9126
14677,0.1162,0.0759,0.9180,0.0378,0.9155
14697,-0.1589,0.1348,0.8926,0.0863,0.9063
14717,0.1304,-0.1748,0.9116,0.0718,0.9092
14737,0.2139,-0.0166,0.9255,0.0496,0.9185
14757,-0.1440,0.1868,0.8923,0.0968,0.9079
14777,0.0249,-0.1257,0.9060,0.0494,0.9069
14797,0.2671,-0.0945,0.9358,0.0772,0.9212
14817,-0.0845,0.1819,0.8987,0.0854,0.9118
14837,-0.0703,-0.0461,0.8987,0.0411,0.9069
14857,0.2683,-0.1528,0.9360,0.0917,0.9206
14877,0.0134,0.1497,0.8972,0.0616,0.9125
14897,-0.1299,0.0361,0.8816,0.0594,0.9018
14917,0.2402,-0.1826,0.9177,0.0934,0.9105
14937,0.0928,0.0933,0.9216,0.0403,0.9146
14957,-0.1533,0.1069,0.8833,0.0778,0.9033
14977,0.1760,-0.1797,0.9133,0.0807,0.9084
14997,0.1572,0.0364,0.9299,0.0361,0.9175
15017,-0.1643,0.1538,0.8921,0.0910,0.9077
15037,0.1091,-0.1687,0.9104,0.0685,0.9092
15057,0.2151,-0.0293,0.9292,0.0523,0.9194
15077,-0.1394,0.1797,0.8877,0.0935,0.9073
15097,0.0403,-0.1387,0.9041,0.0527,0.9062
15117,0.2629,-0.0652,0.9343,0.0723,0.9201
15137,-0.1067,0.1924,0.8950,0.0913,0.9100
15157,-0.0151,-0.0923,0.8906,0.0419,0.9034
15177,0.2732,-0.1096,0.9380,0.0827,0.9194
15197,-0.0652,0.1814,0.8960,0.0812,0.9101
15217,-0.0669,-0.0513,0.9001,0.0424,0.9060
15237,0.2668,-0.1436,0.9426,0.0888,0.9221
15257,-0.1438,0.1904,0.8896,0.0986,0.9094
15277,0.0371,-0.1313,0.9045,0.0486,0.9080
15297,0.2620,-0.0645,0.9336,0.0729,0.9209
15317,-0.1226,0.1885,0.8938,0.0934,0.9100
15337,-0.0039,-0.1096,0.8994,0.0444,0.9063
15357,0.2698,-0.1013,0.9382,0.0804,0.9213
15377,-0.0908,0.1865,0.8992,0.0873,0.9121
15397,-0.0334,-0.0771,0.8945,0.0392,0.9060
15417,0.2803,-0.1216,0.9395,0.0872,0.9218
15437,-0.0652,0.1863,0.9016,0.0830,0.9134
15457,-0.0706,-0.0547,0.8997,0.0437,0.9081
15477,0.2722,-0.1448,0.9429,0.0905,0.9238
15497,-0.0466,0.1724,0.8977,0.0762,0.9139
15517,-0.0869,-0.0339,0.8853,0.0450,0.9042
15537,0.2708,-0.1465,0.9409,0.0917,0.9202
15557,-0.0288,0.1692,0.8979,0.0718,0.9118
15577,-0.0918,-0.0161,0.8865,0.0454,0.9031
15597,0.2705,-0.1567,0.9348,0.0937,0.9175
15617,-0.0068,0.1653,0.8967,0.0677,0.9100
15637,-0.1060,-0.0125,0.8877,0.0510,0.9019
15657,0.2715,-0.1521,0.9263,0.0930,0.9141
15677,0.0032,0.1567,0.8979,0.0637,0.9082
15697,-0.1084,0.0007,0.8909,0.0519,0.9015
15717,0.2622,-0.1602,0.9341,0.0923,0.9160
15737,0.0007,0.1582,0.9021,0.0642,0.9107
15757,-0.0999,-0.0159,0.8860,0.0499,0.9018
15777,0.2673,-0.1521,0.9319,0.0910,0.9159
15797,-0.0073,0.1604,0.8938,0.0665,0.9079
15817,-0.0962,-0.0134,0.8831,0.0485,0.8990
15837,0.2666,-0.1553,0.9421,0.0918,0.9170
15857,-0.0220,0.1685,0.9011,0.0707,0.9106
15877,-0.0884,-0.0300,0.8889,0.0465,0.9028
15897,0.2717,-0.1406,0.9460,0.0904,0.9209
15917,-0.0437,0.1726,0.9116,0.0747,0.9162
15937,-0.0784,-0.0435,0.8928,0.0443,0.9081
15957,0.2715,-0.1318,0.9436,0.0888,0.9237
15977,-0.0518,0.1763,0.9053,0.0766,0.9163
15997,0.1030,-0.1672,0.9072,0.0609,0.9152
16017,0.2053,0.0054,0.9280,0.0440,0.9235
16037,-0.1697,0.1597,0.8867,0.0992,0.9089
16057,0.1326,-0.1775,0.9153,0.0714,0.9124
16077,0.1926,0.0234,0.9272,0.0442,0.9205
16097,-0.1755,0.1382,0.8831,0.0941,0.9063
16117,0.1658,-0.1880,0.9148,0.0800,0.9110
16137,0.1548,0.0684,0.9314,0.0423,0.9196
16157,-0.1631,0.1201,0.8840,0.0847,0.9066
16177,0.2012,-0.1895,0.9155,0.0876,0.9121
16197,0.1021,0.0977,0.9255,0.0408,0.9173
16217,-0.1555,0.0728,0.8733,0.0742,0.9021
16237,0.2415,-0.1824,0.9160,0.0938,0.9101
16257,0.0549,0.1375,0.9121,0.0527,0.9108
16277,-0.1238,0.0249,0.8850,0.0591,0.9013
16297,0.2686,-0.1619,0.9204,0.0940,0.9119
16317,-0.0107,0.1631,0.8962,0.0669,0.9059
16337,-0.0906,-0.0391,0.8872,0.0491,0.8988
16357,0.2705,-0.1284,0.9451,0.0877,0.9178
16377,-0.0747,0.1824,0.9082,0.0821,0.9127
16397,-0.0312,-0.0916,0.8936,0.0429,0.9062
16417,0.2776,-0.0859,0.9392,0.0816,0.9216
16437,-0.1228,0.1887,0.9011,0.0932,0.9127
16457,0.0322,-0.1475,0.9036,0.0549,0.9099
16477,0.2407,-0.0315,0.9307,0.0632,0.9207
16497,-0.1528,0.1738,0.8826,0.0953,0.9066
16517,0.1101,-0.1726,0.9136,0.0682,0.9097
16537,0.1877,0.0298,0.9319,0.0460,0.9196
16557,-0.1650,0.1311,0.8828,0.0877,0.9062
16577,0.1875,-0.1946,0.9182,0.0860,0.9123
16597,0.1082,0.0986,0.9238,0.0425,0.9170
16617,-0.1594,0.0615,0.8784,0.0741,0.9034
16637,0.2432,-0.1807,0.9253,0.0936,0.9139
16657,0.0315,0.1538,0.9121,0.0595,0.9129
16677,0.0347,-0.1384,0.8992,0.0481,0.9092
16697,0.2437,-0.0227,0.9316,0.0571,0.9216
16717,-0.1631,0.1616,0.8911,0.1002,0.9084
16737,0.1350,-0.1814,0.9082,0.0709,0.9103
16757,0.1609,0.0620,0.9275,0.0419,0.9181
16777,-0.1572,0.1077,0.8711,0.0827,0.9015
16797,0.2185,-0.1934,0.9160,0.0902,0.9095
16817,0.0613,0.1345,0.9155,0.0520,0.9114
16837,-0.1270,0.0034,0.8884,0.0602,0.9026
16857,0.2766,-0.1545,0.9478,0.0944,0.9214
16877,-0.0537,0.1765,0.8987,0.0781,0.9125
16897,-0.0378,-0.0930,0.8896,0.0444,0.9048
16917,0.2671,-0.0779,0.9370,0.0768,0.9197
16937,-0.1458,0.1853,0.8997,0.0972,0.9108
16957,0.0850,-0.1716,0.9036,0.0645,0.9093
16977,0.2004,0.0251,0.9285,0.0505,0.9186
16997,-0.1641,0.1284,0.8884,0.0872,0.9070
17017,0.2026,-0.1870,0.9133,0.0865,0.9119
17037,0.0735,0.1223,0.9158,0.0472,0.9135
17057,-0.1311,0.0122,0.8848,0.0612,0.9030
17077,0.2742,-0.1492,0.9382,0.0934,0.9186
17097,-0.0552,0.1780,0.9031,0.0776,0.9120
17117,-0.0291,-0.1033,0.8950,0.0456,0.9061
17137,0.2622,-0.0601,0.9363,0.0736,0.9202
17157,-0.1497,0.1699,0.8818,0.0946,0.9059
17177,0.1182,-0.1777,0.9150,0.0695,0.9099
17197,0.1541,0.0757,0.9268,0.0448,0.9173
17217,-0.1575,0.0842,0.8848,0.0764,0.9054
17237,0.2432,-0.1790,0.9192,0.0933,0.9134
17257,0.0088,0.1655,0.8987,0.0640,0.9083
17277,-0.0740,-0.0588,0.8936,0.0472,0.9025
17297,0.2852,-0.1008,0.9368,0.0860,0.9185
17317,-0.1348,0.1892,0.8943,0.0963,0.9083
17337,0.0732,-0.1650,0.9041,0.0616,0.9075
17357,0.1946,0.0305,0.9253,0.0490,0.9162
17377,-0.1619,0.1179,0.8811,0.0844,0.9033
17397,0.2197,-0.1880,0.9133,0.0901,0.9097
17417,0.0405,0.1504,0.9058,0.0567,0.9084
17437,0.0637,-0.1582,0.9023,0.0535,0.9077
17457,0.2000,0.0225,0.9304,0.0447,0.9187
17477,-0.1719,0.1187,0.8821,0.0929,0.9039
17497,0.2212,-0.1858,0.9126,0.0868,0.9106
17517,0.0447,0.1565,0.9033,0.0597,0.9083
17537,-0.0979,-0.0327,0.8904,0.0531,0.9010
17557,0.2886,-0.1106,0.9417,0.0884,0.9191
17577,-0.1267,0.1895,0.8918,0.0951,0.9080
17597,0.0828,-0.1738,0.9063,0.0646,0.9082
17617,0.1809,0.0459,0.9326,0.0463,0.9186
17637,-0.1589,0.0913,0.8779,0.0802,0.9039
17657,0.2441,-0.1765,0.9209,0.0917,0.9132
17677,-0.0132,0.1694,0.9063,0.0681,0.9099
17697,-0.0498,-0.0830,0.9004,0.0451,0.9060
17717,0.2705,-0.0649,0.9353,0.0768,0.9200
17737,-0.1536,0.1650,0.8845,0.0947,0.9064
17757,0.1472,-0.1868,0.9202,0.0759,0.9125
17777,0.1096,0.1104,0.9272,0.0460,0.9182
17797,-0.1282,0.0137,0.8877,0.0614,0.9071
17817,0.2698,-0.1370,0.9412,0.0893,0.9222
17837,-0.0930,0.1997,0.8943,0.0893,0.9117
17857,0.0444,-0.1572,0.9009,0.0582,0.9085
17877,0.2107,0.0264,0.9309,0.0542,0.9189
17897,-0.1660,0.1123,0.8816,0.0853,0.9052
17917,0.2385,-0.1858,0.9194,0.0934,0.9134
17937,0.0007,0.1697,0.9023,0.0662,0.9092
17957,-0.0452,-0.0862,0.8882,0.0458,0.9018
17977,0.2632,-0.0496,0.9368,0.0730,0.9174
17997,-0.1602,0.1589,0.8896,0.0943,0.9061
18017,0.1721,-0.1965,0.9180,0.0828,0.9122
18037,0.0845,0.1301,0.9229,0.0502,0.9161
18057,-0.1160,-0.0222,0.8853,0.0578,0.9050
18077,0.2764,-0.1116,0.9431,0.0864,0.9216
18097,-0.1301,0.1858,0.9043,0.0935,0.9137
18117,0.1011,-0.1831,0.9089,0.0689,0.9134
18137,0.1580,0.0862,0.9224,0.0482,0.9185
18157,-0.0361,-0.1035,0.8931,0.0483,0.9099
18177,0.2534,-0.0352,0.9348,0.0627,0.9231
18197,-0.1726,0.1467,0.8906,0.0999,0.9092
18217,0.1963,-0.1997,0.9172,0.0844,0.9154
18237,0.0466,0.1509,0.9109,0.0591,0.9137
18257,-0.0859,-0.0530,0.8960,0.0504,0.9068
18277,0.2798,-0.0745,0.9443,0.0811,0.9236
18297,-0.1538,0.1675,0.8889,0.0959,0.9100
18317,0.1523,-0.1897,0.9136,0.0770,0.9133
18337,0.0913,0.1309,0.9226,0.0506,0.9170
18357,-0.1042,-0.0266,0.8857,0.0546,0.9058
18377,0.2773,-0.0935,0.9424,0.0836,0.9220
18397,-0.1423,0.1799,0.8940,0.0948,0.9109
18417,0.1367,-0.2007,0.9163,0.0785,0.9143
18437,0.0996,0.1099,0.9263,0.0455,0.9189
18457,-0.1250,0.0005,0.8848,0.0595,0.9068
18477,0.2839,-0.1096,0.9453,0.0894,0.9235
18497,-0.1387,0.1782,0.8982,0.0935,0.9132
18517,0.1245,-0.1865,0.9087,0.0726,0.9134
18537,0.1111,0.1147,0.9224,0.0475,0.9174
18557,-0.1223,-0.0046,0.8811,0.0591,0.9046
18577,0.2822,-0.1082,0.9409,0.0885,0.9207
18597,-0.1431,0.1831,0.8914,0.0954,0.9092
18617,0.1323,-0.1863,0.9155,0.0742,0.9126
18637,0.1025,0.1116,0.9272,0.0453,0.9182
18657,-0.1199,-0.0188,0.8894,0.0581,0.9077
18677,0.2815,-0.0981,0.9360,0.0865,0.9213
18697,-0.1501,0.1790,0.8960,0.0960,0.9110
18717,0.1516,-0.1990,0.9165,0.0803,0.9147
18737,0.0820,0.1338,0.9155,0.0513,0.9156
18757,-0.0942,-0.0500,0.8914,0.0524,0.9068
18777,0.2771,-0.0601,0.9373,0.0800,0.9210
18797,-0.1685,0.1667,0.8833,0.0978,0.9069
18817,0.1948,-0.1960,0.9153,0.0876,0.9121
18837,0.0452,0.1577,0.9077,0.0580,0.9109
18857,-0.0669,-0.0840,0.8923,0.0507,0.9040
18877,0.1301,0.1038,0.9241,0.0469,0.9118
18897,-0.1260,-0.0029,0.8877,0.0555,0.9033
18917,0.2761,-0.1060,0.9390,0.0909,0.9179
18937,-0.1487,0.1846,0.8892,0.0932,0.9075
18957,0.1582,-0.1980,0.9238,0.0840,0.9140
18977,0.0737,0.1438,0.9172,0.0526,0.9157
18997,-0.0942,-0.0603,0.8879,0.0535,0.9059
19017,0.2671,-0.0471,0.9333,0.0772,0.9187
19037,-0.1750,0.1401,0.8887,0.0928,0.9070
19057,0.2209,-0.1914,0.9114,0.0917,0.9116
19077,-0.0117,0.1826,0.8984,0.0705,0.9068
19097,-0.0149,-0.1282,0.8965,0.0511,0.9031
19117,0.2151,0.0188,0.9272,0.0573,0.9139
19137,-0.1667,0.0828,0.8750,0.0809,0.8997
19157,0.2781,-0.1633,0.9226,0.0978,0.9115
19177,-0.1025,0.1890,0.8916,0.0887,0.9031
19197,0.0911,-0.1790,0.9055,0.0658,0.9049
19217,0.1343,0.1106,0.9231,0.0498,0.9122
19237,-0.1187,-0.0203,0.8823,0.0595,0.9012
19257,0.2812,-0.0708,0.9380,0.0829,0.9174
19277,-0.1655,0.1511,0.8833,0.0942,0.9042
19297,0.2080,-0.1963,0.9097,0.0890,0.9092
19317,0.0042,0.1768,0.9058,0.0675,0.9075
19337,-0.0122,-0.1350,0.8945,0.0526,0.9031
19357,0.2156,0.0286,0.9299,0.0571,0.9148
19377,-0.1604,0.0645,0.8745,0.0784,0.8999
19397,0.2737,-0.1350,0.9409,0.0909,0.9172
19417,-0.1208,0.1885,0.9009,0.0915,0.9098
19437,0.1289,-0.2053,0.9141,0.0783,0.9129
19457,0.0745,0.1467,0.9146,0.0553,0.9140
19477,-0.0750,-0.0671,0.8889,0.0492,0.9051
19497,0.2664,-0.0264,0.9270,0.0739,0.9165
19517,-0.1787,0.1187,0.8838,0.0915,0.9036
19537,0.2627,-0.1711,0.9189,0.0957,0.9127
19557,-0.0803,0.1902,0.8960,0.0839,0.9057
19577,0.0779,-0.1733,0.9031,0.0634,0.9057
19597,0.1165,0.1187,0.9241,0.0488,0.9128
19617,-0.1050,-0.0481,0.8862,0.0562,0.9030
19637,0.2725,-0.0427,0.9424,0.0784,0.9196
19657,-0.1753,0.1284,0.8848,0.0919,0.9063
19677,0.2778,-0.0706,0.9404,0.0854,0.9208
19697,-0.1733,0.1548,0.8860,0.0930,0.9083
19717,0.2366,-0.1843,0.9150,0.0962,0.9133
19737,-0.0454,0.1885,0.9021,0.0739,0.9091
19757,0.0476,-0.1660,0.8979,0.0619,0.9058
19777,0.1445,0.0952,0.9263,0.0468,0.9141
19797,-0.1160,-0.0320,0.8816,0.0593,0.9023
19817,0.2739,-0.0552,0.9409,0.0796,0.9188
19837,-0.1807,0.1338,0.8799,0.0945,0.9042
19857,0.2522,-0.1738,0.9214,0.0944,0.9134
19877,-0.0823,0.1965,0.9036,0.0848,0.9087
19897,0.0913,-0.1938,0.9087,0.0712,0.9098
19917,0.1003,0.1289,0.9214,0.0508,0.9144
19937,-0.0908,-0.0686,0.8904,0.0538,0.9056
19957,0.2478,-0.0117,0.9329,0.0692,0.9179
19977,-0.1704,0.0933,0.8784,0.0841,0.9034
19997,0.2710,-0.1487,0.9395,0.0940,0.9187
20017,-0.1277,0.1812,0.8948,0.0908,0.9091
20037,0.1621,-0.2007,0.9175,0.0816,0.9141
20057,0.0295,0.1628,0.9038,0.0609,0.9108
20077,-0.0225,-0.1360,0.8931,0.0532,0.9050
20097,0.1985,0.0566,0.9265,0.0562,0.9145
20117,-0.1440,0.0166,0.8796,0.0685,0.9016
20137,0.2852,-0.0886,0.9395,0.0868,0.9181
20157,-0.1772,0.1504,0.8823,0.0974,0.9043
20177,0.2375,-0.1951,0.9192,0.0951,0.9127
20197,-0.0654,0.1904,0.9048,0.0814,0.9085
20217,0.0833,-0.1860,0.9036,0.0664,0.9082
20237,0.0981,0.1331,0.9287,0.0527,0.9154
20257,-0.0754,-0.0840,0.8914,0.0521,0.9069
20277,0.2449,0.0112,0.9365,0.0676,0.9199
20297,-0.1650,0.0715,0.8816,0.0805,0.9056
20317,0.2876,-0.1299,0.9365,0.0938,0.9200
20337,-0.1543,0.1704,0.8967,0.0957,0.9101
20357,0.2068,-0.1973,0.9143,0.0887,0.9147
20377,-0.0295,0.1897,0.9045,0.0750,0.9105
20397,0.0498,-0.1809,0.8975,0.0637,0.9072
20417,0.1250,0.1150,0.9277,0.0506,0.9149
20437,-0.0894,-0.0654,0.8894,0.0535,0.9057
20457,0.2517,-0.0022,0.9343,0.0695,0.9186
20477,-0.1670,0.0671,0.8828,0.0812,0.9049
20497,0.2861,-0.1287,0.9370,0.0928,0.9198
20517,-0.1663,0.0618,0.8733,0.0840,0.9022
20537,0.2915,-0.1150,0.9390,0.0898,0.9192
20557,-0.1643,0.1643,0.8850,0.0996,0.9052
20577,0.2256,-0.1855,0.9153,0.0882,0.9124
20597,-0.0618,0.1926,0.8992,0.0817,0.9066
20617,0.0989,-0.1938,0.9158,0.0698,0.9109
20637,0.0762,0.1511,0.9158,0.0567,0.9130
20657,-0.0479,-0.1099,0.8914,0.0514,0.9055
20677,0.2139,0.0449,0.9282,0.0590,0.9158
20697,-0.1494,0.0088,0.8770,0.0711,0.9015
20717,0.2856,-0.0649,0.9421,0.0847,0.9188
20737,-0.1709,0.1252,0.8850,0.0912,0.9055
20757,0.2656,-0.1721,0.9192,0.0956,0.9144
20777,-0.1235,0.1921,0.9006,0.0935,0.9077
20797,0.1631,-0.1982,0.9202,0.0809,0.9139
20817,0.0059,0.1772,0.9092,0.0665,0.9120
20837,0.0247,-0.1587,0.8958,0.0567,0.9073
20857,0.1392,0.1101,0.9138,0.0507,0.9111
20877,-0.0974,-0.0737,0.8962,0.0570,0.9050
20897,0.2419,0.0107,0.9272,0.0672,0.9156
20917,-0.1602,0.0430,0.8745,0.0763,0.9005
20937,0.2827,-0.0913,0.9390,0.0872,0.9170
20957,-0.1780,0.1504,0.8855,0.0967,0.9046
20977,0.3044,-0.1260,0.9312,0.0997,0.9178
20997,-0.0728,0.2273,0.9097,0.0896,0.9144
21017,0.1738,-0.1721,0.9272,0.0784,0.9202
21037,0.0178,0.1790,0.9043,0.0609,0.9161
21057,0.0393,-0.1672,0.8992,0.0644,0.9106
21077,0.1326,0.1182,0.9285,0.0471,0.9183
21097,-0.0884,-0.0969,0.8872,0.0625,0.9069
21117,0.2322,0.0391,0.9314,0.0632,0.9183
21137,-0.1580,0.0203,0.8762,0.0755,0.9027
21157,0.2971,-0.0505,0.9329,0.0867,0.9172
21177,-0.1714,0.1111,0.8843,0.0896,0.9040
21197,0.2759,-0.1350,0.9346,0.0916,0.9181
21217,-0.1450,0.1748,0.8918,0.0935,0.9076
21237,0.2236,-0.1877,0.9170,0.0903,0.9140
21257,-0.0811,0.1895,0.9038,0.0824,0.9092
21277,0.1260,-0.2000,0.9143,0.0759,0.9126
21297,-0.1309,0.1895,0.8970,0.0888,0.9065
21317,0.2021,-0.1887,0.9155,0.0891,0.9117
21337,-0.0537,0.1912,0.9004,0.0762,0.9074
21357,0.1094,-0.1934,0.9153,0.0723,0.9112
21377,0.0427,0.1726,0.9067,0.0622,0.9101
21397,0.0200,-0.1636,0.8945,0.0582,0.9056
21417,0.1284,0.1230,0.9287,0.0534,0.9141
21437,-0.0735,-0.0991,0.8943,0.0548,0.9069
21457,0.2029,0.0535,0.9287,0.0580,0.9164
21477,-0.1338,-0.0249,0.8882,0.0646,0.9057
21497,0.2656,-0.0168,0.9333,0.0758,0.9184
21517,-0.1758,0.0496,0.8813,0.0822,0.9043
21537,0.2942,-0.0720,0.9402,0.0892,0.9201
21557,-0.1760,0.1182,0.8821,0.0913,0.9055
21577,0.2849,-0.1394,0.9336,0.0954,0.9189
21597,-0.1548,0.1638,0.8826,0.0944,0.9051
21617,0.2483,-0.1821,0.9177,0.0939,0.9132
21637,-0.1084,0.1936,0.9077,0.0899,0.9093
21657,0.1814,-0.1887,0.9175,0.0813,0.9146
21677,-0.0535,0.1917,0.9050,0.0774,0.9106
21697,0.1145,-0.2012,0.9165,0.0747,0.9140
21717,0.0239,0.1838,0.9055,0.0668,0.9114
21737,0.0352,-0.1753,0.8997,0.0619,0.9083
21757,0.0964,0.1489,0.9250,0.0566,0.9144
21777,-0.0264,-0.1350,0.8833,0.0547,0.9045
21797,0.1597,0.0984,0.9226,0.0530,0.9122
21817,-0.0842,-0.0903,0.8853,0.0565,0.9026
21837,0.2163,0.0574,0.9355,0.0625,0.9158
21857,-0.1255,-0.0359,0.8904,0.0639,0.9058
21877,0.2578,0.0029,0.9307,0.0718,0.9177
21897,-0.1587,0.0278,0.8840,0.0762,0.9045
21917,0.2810,-0.0430,0.9419,0.0815,0.9207
21937,-0.1682,0.0706,0.8794,0.0834,0.9050
21957,0.2886,-0.0879,0.9402,0.0879,0.9208
21977,-0.1763,0.1252,0.8806,0.0932,0.9055
21997,0.2859,-0.1301,0.9397,0.0942,0.9207
22017,-0.1658,0.1577,0.8862,0.0956,0.9074
22037,0.2627,-0.1667,0.9211,0.0948,0.9160
22057,-0.1387,0.1741,0.8958,0.0918,0.9073
22077,0.2266,-0.1912,0.9138,0.0911,0.9131
22097,-0.0984,0.1953,0.9004,0.0879,0.9073
22117,0.2820,-0.1208,0.9380,0.0896,0.9218
22137,-0.1653,0.1536,0.8933,0.0953,0.9101
22157,0.2742,-0.1582,0.9268,0.0955,0.9199
22177,-0.1477,0.1777,0.8967,0.0952,0.9102
22197,0.2351,-0.1821,0.9194,0.0915,0.9168
22217,-0.1135,0.1816,0.9053,0.0872,0.9112
22237,0.2026,-0.1943,0.9150,0.0866,0.9157
22257,-0.0869,0.1992,0.9038,0.0860,0.9105
22277,0.1636,-0.2043,0.9207,0.0826,0.9161
22297,-0.0396,0.1968,0.9011,0.0773,0.9106
22317,0.1121,-0.1968,0.9165,0.0728,0.9140
22337,-0.0005,0.1819,0.9060,0.0676,0.9112
22357,0.0791,-0.1956,0.9160,0.0686,0.9140
22377,0.0408,0.1814,0.9102,0.0659,0.9130
22397,0.0337,-0.1802,0.8926,0.0629,0.9074
22417,0.0879,0.1543,0.9246,0.0584,0.9134
22437,-0.0071,-0.1606,0.8904,0.0585,0.9064
22457,0.1255,0.1382,0.9248,0.0579,0.9134
22477,-0.0374,-0.1399,0.8894,0.0569,0.9056
22497,0.1514,0.1099,0.9353,0.0553,0.9164
22517,-0.0588,-0.1118,0.8921,0.0539,0.9081
22537,0.1765,0.0928,0.9285,0.0565,0.9167
22557,-0.0889,-0.0981,0.8892,0.0593,0.9069
22577,0.2039,0.0649,0.9314,0.0600,0.9172
22597,-0.1106,-0.0667,0.8865,0.0613,0.9060
22617,0.2288,0.0481,0.9290,0.0654,0.9165
22637,-0.1304,-0.0447,0.8857,0.0664,0.9048
22657,0.2449,0.0269,0.9346,0.0691,0.9177
22677,-0.1414,-0.0247,0.8779,0.0698,0.9031
22697,0.2532,0.0071,0.9326,0.0710,0.9161
22717,-0.1492,-0.0054,0.8799,0.0721,0.9024
22737,0.2695,-0.0068,0.9302,0.0761,0.9154
22757,-0.1624,0.0083,0.8799,0.0773,0.9015
22777,0.2727,-0.0098,0.9299,0.0774,0.9147
22797,-0.1575,0.0237,0.8811,0.0762,0.9015
22817,0.2778,-0.0303,0.9373,0.0794,0.9171
22837,-0.1667,0.0337,0.8762,0.0804,0.9015
22857,0.2761,-0.0347,0.9409,0.0795,0.9181
22877,-0.1685,0.0430,0.8738,0.0812,0.9016
22897,0.1746,0.1050,0.9338,0.0565,0.9141
22917,-0.0786,-0.1006,0.8835,0.0600,0.9031
22937,0.1855,0.1035,0.9336,0.0597,0.9152
22957,-0.0798,-0.1089,0.8860,0.0615,0.9047
22977,0.1890,0.1023,0.9285,0.0605,0.9148
22997,-0.0903,-0.1006,0.8889,0.0619,0.9052
23017,0.1865,0.0867,0.9292,0.0577,0.9152
23037,-0.0825,-0.1016,0.8831,0.0591,0.9040
23057,0.1934,0.0903,0.9333,0.0606,0.9157
23077,-0.0901,-0.0889,0.8894,0.0591,0.9060
23097,0.1938,0.0930,0.9324,0.0606,0.9169
23117,-0.0737,-0.1074,0.8872,0.0589,0.9064
23137,0.1809,0.1021,0.9351,0.0587,0.9178
23157,-0.0823,-0.1094,0.8989,0.0608,0.9105
23177,0.1787,0.1018,0.9336,0.0587,0.9200
23197,-0.0730,-0.1147,0.8853,0.0596,0.9082
23217,0.1643,0.1128,0.9316,0.0580,0.9175
23237,-0.0562,-0.1240,0.8923,0.0572,0.9089
23257,0.1519,0.1216,0.9275,0.0571,0.9166
23277,-0.0386,-0.1348,0.8862,0.0567,0.9067
23297,0.1409,0.1243,0.9316,0.0558,0.9161
23317,-0.0356,-0.1543,0.8853,0.0609,0.9063
23337,0.1221,0.1443,0.9202,0.0594,0.9119
23357,-0.0020,-0.1592,0.8979,0.0572,0.9077
23377,0.0964,0.1624,0.9241,0.0613,0.9137
23397,0.0081,-0.1780,0.8928,0.0630,0.9076
23417,0.0796,0.1648,0.9219,0.0614,0.9126
23437,0.0408,-0.1863,0.8967,0.0634,0.9087
23457,0.0457,0.1853,0.9089,0.0673,0.9090
23477,0.0652,-0.1973,0.9019,0.0679,0.9081
23497,0.0110,0.1938,0.8972,0.0712,0.9045
23517,0.0972,-0.2068,0.9097,0.0732,0.9078
23537,-0.0095,0.1987,0.9060,0.0746,0.9067
23557,0.1287,-0.1992,0.9111,0.0743,0.9102
23577,-0.0588,0.1968,0.9045,0.0796,0.9073
23597,0.1711,-0.2080,0.9236,0.0842,0.9151
23617,-0.0835,0.1982,0.9080,0.0851,0.9113
23637,0.1948,-0.1890,0.9150,0.0836,0.9156
23657,-0.1067,0.1860,0.8994,0.0859,0.9089
23677,0.2427,-0.1848,0.9180,0.0930,0.9159
23697,-0.1382,0.1816,0.8926,0.0936,0.9063
23717,0.2554,-0.1689,0.9233,0.0929,0.9158
23737,-0.1543,0.1550,0.8933,0.0920,0.9061
23757,0.2708,-0.0042,0.9341,0.0771,0.9190
23777,-0.1523,-0.0095,0.8740,0.0751,0.9024
23797,0.2478,0.0276,0.9326,0.0693,0.9156
23817,-0.1252,-0.0620,0.8838,0.0685,0.9034
23837,0.2158,0.0718,0.9321,0.0630,0.9155
23857,-0.0923,-0.0940,0.8882,0.0621,0.9053
23877,0.1731,0.1125,0.9290,0.0585,0.9151
23897,-0.0466,-0.1436,0.8909,0.0615,0.9068
23917,0.1265,0.1494,0.9214,0.0598,0.9129
23937,0.0112,-0.1846,0.8989,0.0650,0.9090
23957,0.0654,0.1755,0.9126,0.0642,0.9106
23977,0.0659,-0.1995,0.9031,0.0679,0.9097
23997,0.0039,0.2048,0.9036,0.0756,0.9075
24017,0.1287,-0.2109,0.9172,0.0777,0.9127
24037,-0.0574,0.2046,0.9082,0.0825,0.9101
24057,0.1875,-0.2061,0.9204,0.0860,0.9165
24077,-0.1042,0.1902,0.8982,0.0877,0.9089
24097,0.2417,-0.1780,0.9194,0.0906,0.9164
24117,-0.1406,0.1697,0.8901,0.0919,0.9058
24137,0.2678,-0.1458,0.9280,0.0912,0.9171
24157,-0.1743,0.1328,0.8826,0.0937,0.9035
24177,0.2942,-0.1008,0.9414,0.0927,0.9199
24197,-0.1833,0.0784,0.8794,0.0894,0.9043
24217,0.2988,-0.0496,0.9429,0.0885,0.9211
24237,-0.1650,0.0168,0.8850,0.0800,0.9067
24257,0.2622,0.0247,0.9309,0.0734,0.9185
24277,-0.1331,-0.0483,0.8838,0.0704,0.9052
24297,0.2295,0.0728,0.9282,0.0664,0.9160
24317,-0.0850,-0.1099,0.8882,0.0641,0.9057
24337,0.1521,0.1284,0.9258,0.0575,0.9140
24357,-0.0181,-0.1667,0.8811,0.0634,0.9038
24377,0.0911,0.1660,0.9209,0.0619,0.9099
24397,0.0520,-0.1960,0.8994,0.0667,0.9079
24417,-0.0083,0.1960,0.9009,0.0736,0.9052
24437,0.1433,-0.2100,0.9141,0.0789,0.9105
24457,-0.0691,0.1968,0.8970,0.0827,0.9049
24477,0.2129,-0.1860,0.9197,0.0855,0.9131
24497,-0.1421,0.1873,0.9011,0.0949,0.9071
24517,0.2764,-0.1570,0.9219,0.0967,0.9162
24537,-0.1731,0.1382,0.8848,0.0941,0.9036
24557,0.2949,-0.0916,0.9451,0.0921,0.9210
24577,-0.1855,0.0554,0.8740,0.0883,0.9034
24597,0.2869,-0.0247,0.9478,0.0839,0.9215
24617,-0.1560,-0.0232,0.8801,0.0764,0.9059
24637,0.2415,0.0593,0.9373,0.0701,0.9193
24657,0.0725,-0.2061,0.9058,0.0657,0.9175
24677,-0.0208,0.2009,0.9089,0.0822,0.9130
24697,0.1687,-0.2051,0.9167,0.0770,0.9181
24717,-0.1038,0.1978,0.8989,0.0927,0.9096
24737,0.2554,-0.1802,0.9216,0.0922,0.9184
24757,-0.1672,0.1533,0.8955,0.0975,0.9079
24777,0.2805,-0.1089,0.9368,0.0884,0.9215
24797,-0.1838,0.0791,0.8772,0.0898,0.9047
24817,0.2886,-0.0383,0.9417,0.0849,0.9206
24837,-0.1624,-0.0088,0.8794,0.0781,0.9050
24857,0.2366,0.0566,0.9375,0.0688,0.9185
24877,-0.0989,-0.0984,0.8862,0.0648,0.9068
24897,0.1587,0.1333,0.9353,0.0609,0.9177
24917,0.0002,-0.1775,0.8884,0.0648,0.9088
24937,0.0491,0.1921,0.9077,0.0682,0.9090
24957,0.1038,-0.2126,0.9016,0.0756,0.9087
24977,-0.0498,0.2048,0.9009,0.0813,0.9052
24997,0.2053,-0.1870,0.9124,0.0844,0.9110
25017,-0.1372,0.1838,0.8984,0.0927,0.9049
25037,0.2791,-0.1433,0.9285,0.0949,0.9167
25057,-0.1782,0.1096,0.8823,0.0913,0.9030
25077,0.2913,-0.0579,0.9429,0.0873,0.9199
25097,-0.1721,0.0107,0.8708,0.0819,0.9017
25117,0.2522,0.0327,0.9336,0.0721,0.9154
25137,-0.1091,-0.0933,0.8838,0.0670,0.9036
25157,0.1667,0.1338,0.9304,0.0629,0.9142
25177,-0.0098,-0.1807,0.8887,0.0666,0.9063
25197,0.0522,0.1904,0.9058,0.0681,0.9067
25217,0.1155,-0.2083,0.9094,0.0748,0.9097
25237,-0.0693,0.2107,0.8967,0.0859,0.9044
25257,0.2273,-0.1868,0.9199,0.0898,0.9130
25277,-0.1504,0.1663,0.8911,0.0928,0.9037
25297,0.2773,-0.1216,0.9287,0.0907,0.9159
25317,-0.1829,0.0769,0.8806,0.0882,0.9019
25337,0.2979,-0.0237,0.9465,0.0877,0.9203
25357,-0.1548,-0.0237,0.8811,0.0766,0.9052
25377,0.2234,0.0896,0.9292,0.0675,0.9162
25397,-0.0640,-0.1375,0.8901,0.0653,0.9068
25417,0.1030,0.1697,0.9211,0.0619,0.9127
25437,0.0747,-0.2236,0.9041,0.0772,0.9116
25457,-0.0439,0.2090,0.8997,0.0824,0.9069
25477,0.1982,-0.2000,0.9226,0.0859,0.9152
25497,-0.1431,0.1643,0.8940,0.0906,0.9062
25517,0.2817,-0.1301,0.9280,0.0928,0.9176
25537,-0.1902,0.0801,0.8794,0.0913,0.9026
25557,0.2920,-0.0222,0.9348,0.0860,0.9170
25577,0.0020,-0.1770,0.8862,0.0600,0.9084
25597,0.0347,0.1960,0.9092,0.0756,0.9079
25617,0.1499,-0.2129,0.9084,0.0756,0.9119
25637,-0.1055,0.2000,0.8977,0.0940,0.9047
25657,0.2583,-0.1626,0.9170,0.0894,0.9135
25677,-0.1750,0.1199,0.8767,0.0937,0.8988
25697,0.2969,-0.0591,0.9463,0.0885,0.9183
25717,-0.1760,0.0000,0.8787,0.0834,0.9028
25737,0.2402,0.0581,0.9351,0.0703,0.9163
25757,-0.0735,-0.1411,0.8879,0.0666,0.9064
25777,0.0979,0.1660,0.9155,0.0625,0.9102
25797,0.0764,-0.2102,0.9067,0.0714,0.9109
25817,-0.0547,0.2139,0.9102,0.0849,0.9095
25837,0.2178,-0.1860,0.9128,0.0873,0.9142
25857,-0.1567,0.1580,0.8933,0.0922,0.9052
25877,0.2898,-0.1011,0.9397,0.0921,0.9203
25897,-0.1772,0.0405,0.8672,0.0845,0.9010
25917,0.2744,0.0391,0.9326,0.0796,0.9151
25937,-0.1025,-0.1145,0.8887,0.0701,0.9048
25957,0.1353,0.1526,0.9214,0.0616,0.9118
25977,0.0479,-0.2146,0.9038,0.0731,0.9105
25997,-0.0398,0.2070,0.9065,0.0811,0.9082
26017,0.2168,-0.1987,0.9148,0.0890,0.9143
26037,-0.1560,0.1616,0.8906,0.0942,0.9042
26057,0.2869,-0.0962,0.9370,0.0900,0.9188
26077,-0.1709,0.0347,0.8789,0.0818,0.9035
26097,0.2585,0.0366,0.9336,0.0743,0.9167
26117,-0.0906,-0.1169,0.8875,0.0665,0.9060
26137,0.1250,0.1624,0.9224,0.0631,0.9127
26157,0.0703,-0.2114,0.9041,0.0725,0.9116
26177,-0.0581,0.2075,0.9075,0.0835,0.9091
26197,0.2410,-0.1914,0.9233,0.0929,0.9179
26217,-0.1758,0.1416,0.8843,0.0965,0.9044
26237,0.2935,-0.0635,0.9485,0.0891,0.9225
26257,-0.1626,-0.0171,0.8735,0.0788,0.9045
26277,0.2253,0.0913,0.9373,0.0698,0.9179
26297,-0.0369,-0.1626,0.8826,0.0660,0.9065
26317,0.0432,0.1958,0.9172,0.0691,0.9102
26337,0.1572,-0.2217,0.9128,0.0840,0.9141
26357,-0.1301,0.1880,0.8987,0.0932,0.9070
26377,0.2861,-0.1196,0.9329,0.0926,0.9197
26397,-0.1855,0.0559,0.8743,0.0884,0.9024
26417,0.2681,0.0347,0.9351,0.0779,0.9166
26437,-0.0986,-0.1230,0.8867,0.0701,0.9055
26457,0.1013,0.1797,0.9170,0.0655,0.9105
26477,0.0964,-0.2141,0.9126,0.0758,0.9128
26497,-0.0801,0.2078,0.8955,0.0864,0.9063
26517,0.2859,-0.0103,0.9407,0.0809,0.9218
26537,-0.1311,-0.0754,0.8870,0.0760,0.9078
26557,0.1570,0.1438,0.9319,0.0595,0.9180
26577,0.0422,-0.2183,0.8950,0.0774,0.9117
26597,-0.0527,0.2170,0.8977,0.0842,0.9066
26617,0.2307,-0.1841,0.9214,0.0905,0.9149
26637,-0.1721,0.1257,0.8816,0.0912,0.9019
26657,0.2996,-0.0354,0.9446,0.0892,0.9196
26677,-0.1438,-0.0593,0.8813,0.0752,0.9051
26697,0.1714,0.1375,0.9341,0.0644,0.9165
26717,0.0383,-0.2141,0.8970,0.0738,0.9115
26737,-0.0391,0.2173,0.9028,0.0837,0.9080
26757,0.2356,-0.1870,0.9182,0.0908,0.9154
26777,-0.1731,0.1194,0.8914,0.0916,0.9047
26797,0.2917,-0.0278,0.9453,0.0856,0.9218
26817,-0.1370,-0.0659,0.8896,0.0732,0.9092
26837,0.1636,0.1411,0.9346,0.0638,0.9194
26857,0.0332,-0.2114,0.8943,0.0732,0.9126
26877,-0.0498,0.2158,0.8958,0.0841,0.9066
26897,0.2520,-0.1841,0.9185,0.0946,0.9147
26917,-0.1855,0.1130,0.8782,0.0946,0.9002
26937,0.2900,-0.0063,0.9426,0.0853,0.9176
26957,-0.1218,-0.0945,0.8889,0.0718,0.9064
26977,0.1255,0.1624,0.9231,0.0631,0.9133
26997,0.0842,-0.2192,0.9092,0.0758,0.9138
27017,-0.0896,0.2058,0.8962,0.0882,0.9069
27037,0.2710,-0.1453,0.9280,0.0925,0.9178
27057,-0.1895,0.0542,0.8765,0.0889,0.9019
27077,0.2659,0.0430,0.9370,0.0786,0.9166
27097,-0.0708,-0.1504,0.8953,0.0684,0.9088
27117,0.0657,0.2070,0.9109,0.0732,0.9103
27137,0.1582,-0.2166,0.9160,0.0831,0.9150
27157,-0.1396,0.1760,0.8955,0.0924,0.9066
27177,0.3008,-0.0847,0.9387,0.0926,0.9214
27197,-0.1731,-0.0151,0.8760,0.0829,0.9042
27217,0.1938,0.1130,0.9294,0.0647,0.9147
27237,0.0120,-0.2139,0.8865,0.0748,0.9067
27257,-0.0447,0.2231,0.9038,0.0857,0.9050
27277,0.2366,-0.1772,0.9282,0.0905,0.9159
27297,-0.1721,0.1016,0.8796,0.0877,0.9019
27317,0.2832,0.0234,0.9387,0.0829,0.9176
27337,-0.0999,-0.1235,0.8931,0.0711,0.9080
27357,0.0940,0.1858,0.9141,0.0663,0.9113
27377,0.1421,-0.2290,0.9150,0.0842,0.9153
27397,-0.1394,0.1812,0.8909,0.0941,0.9053
27417,0.2969,-0.0879,0.9412,0.0921,0.9211
27437,-0.1731,-0.0303,0.8743,0.0827,0.9036
27457,0.1895,0.1287,0.9292,0.0679,0.9141
27477,0.0315,-0.2100,0.8943,0.0723,0.9089
27497,-0.1775,0.1306,0.8792,0.0882,0.8981
27517,0.2920,-0.0044,0.9380,0.0923,0.9134
27537,-0.1213,-0.1162,0.8914,0.0703,0.9051
27557,0.1035,0.1865,0.9229,0.0704,0.9116
27577,0.1277,-0.2200,0.9175,0.0802,0.9158
27597,-0.1360,0.1875,0.8984,0.0925,0.9085
27617,0.2988,-0.0894,0.9407,0.0945,0.9228
27637,-0.1619,-0.0237,0.8765,0.0782,0.9057
27657,0.1934,0.1379,0.9282,0.0697,0.9156
27677,0.0400,-0.2119,0.9009,0.0739,0.9118
27697,-0.0725,0.2190,0.9006,0.0877,0.9074
27717,0.2649,-0.1492,0.9194,0.0921,0.9154
27737,-0.1863,0.0449,0.8779,0.0869,0.9006
27757,0.2424,0.0759,0.9292,0.0738,0.9130
27777,-0.0291,-0.1909,0.8835,0.0724,0.9037
27797,-0.0110,0.2117,0.9099,0.0779,0.9052
27817,0.2278,-0.1899,0.9216,0.0900,0.9142
27837,-0.1853,0.1057,0.8804,0.0926,0.9007
27857,0.2825,0.0295,0.9446,0.0840,0.9183
27877,-0.0786,-0.1575,0.8860,0.0727,0.9070
27897,0.0459,0.2031,0.9048,0.0720,0.9069
27917,0.1855,-0.2031,0.9197,0.0837,0.9142
27937,-0.1731,0.1362,0.8870,0.0932,0.9030
27957,0.3069,-0.0117,0.9438,0.0911,0.9203
27977,-0.1177,-0.1082,0.8896,0.0736,0.9085
27997,0.0937,0.2026,0.9106,0.0714,0.9108
28017,0.1494,-0.2202,0.9163,0.0840,0.9151
28037,-0.1504,0.1680,0.8911,0.0928,0.9053
28057,0.3000,-0.0403,0.9429,0.0895,0.9215
28077,-0.1384,-0.1030,0.8877,0.0784,0.9085
28097,0.1206,0.1846,0.9163,0.0695,0.9127
28117,0.1367,-0.2151,0.9175,0.0793,0.9167
28137,-0.1406,0.1770,0.8887,0.0928,0.9058
28157,0.3020,-0.0593,0.9424,0.0909,0.9219
28177,-0.1467,-0.0706,0.8855,0.0776,0.9078
28197,0.1287,0.1726,0.9224,0.0659,0.9142
28217,0.1223,-0.2307,0.9124,0.0827,0.9161
28237,-0.1343,0.1868,0.9004,0.0937,0.9089
28257,0.2983,-0.0608,0.9434,0.0900,0.9242
28277,-0.1396,-0.0769,0.8896,0.0756,0.9108
28297,0.1304,0.1663,0.9197,0.0648,0.9155
28317,0.1106,-0.2227,0.9143,0.0785,0.9174
28337,-0.1323,0.1863,0.8953,0.0927,0.9084
28357,0.3044,-0.0564,0.9480,0.0919,0.9254
28377,-0.1565,-0.0750,0.8909,0.0807,0.9118
28397,0.1318,0.1746,0.9182,0.0674,0.9158
28417,0.1252,-0.2358,0.9109,0.0845,0.9169
28437,-0.1472,0.1846,0.8921,0.0963,0.9068
28457,0.2959,-0.0508,0.9475,0.0897,0.9237
28477,-0.1401,-0.0874,0.8855,0.0762,0.9095
28497,-0.0713,0.2207,0.9028,0.0792,0.9083
28517,0.2788,-0.1355,0.9307,0.1015,0.9177
28537,-0.1750,0.0073,0.8772,0.0777,0.9030
28557,0.2036,0.1216,0.9272,0.0709,0.9132
28577,0.0405,-0.2292,0.9014,0.0796,0.9105
28597,-0.1040,0.2029,0.8989,0.0886,0.9055
28617,0.2949,-0.1145,0.9299,0.0965,0.9175
28637,-0.1716,-0.0190,0.8835,0.0803,0.9040
28657,0.1794,0.1543,0.9390,0.0717,0.9173
28677,0.0718,-0.2336,0.9121,0.0808,0.9172
28697,-0.1238,0.1929,0.8977,0.0915,0.9093
28717,0.3059,-0.0747,0.9475,0.0947,0.9257
28737,-0.1536,-0.0698,0.8845,0.0788,0.9103
28757,0.1296,0.1768,0.9263,0.0683,0.9170
28777,0.1343,-0.2273,0.9106,0.0826,0.9178
28797,-0.1506,0.1677,0.8938,0.0936,0.9078
28817,0.2971,-0.0344,0.9387,0.0882,0.9219
28837,-0.1187,-0.1194,0.8921,0.0747,0.9106
28857,0.0808,0.2097,0.9119,0.0743,0.9122
28877,0.1848,-0.2185,0.9182,0.0879,0.9176
28897,-0.1755,0.1260,0.8894,0.0933,0.9058
28917,0.2847,0.0242,0.9368,0.0833,0.9197
28937,-0.0676,-0.1768,0.8921,0.0751,0.9102
28957,0.0066,0.2187,0.9031,0.0791,0.9079
28977,0.2390,-0.1777,0.9131,0.0891,0.9139
28997,-0.1826,0.0530,0.8821,0.0870,0.9007
29017,0.2395,0.0916,0.9316,0.0747,0.9137
29037,0.0132,-0.2065,0.8943,0.0724,0.9083
29057,-0.0793,0.2173,0.8989,0.0890,0.9042
29077,0.2900,-0.1172,0.9312,0.0937,0.9172
29097,-0.1736,-0.0339,0.8760,0.0830,0.9013
29117,0.1509,0.1660,0.9307,0.0688,0.9125
29137,0.1155,-0.2366,0.9172,0.0839,0.9163
29157,-0.1570,0.1680,0.8972,0.0946,0.9078
29177,0.3015,-0.0239,0.9436,0.0904,0.9233
29197,-0.0964,-0.1418,0.8914,0.0728,0.9119
29217,0.0244,0.2222,0.9019,0.0783,0.9092
29237,0.2351,-0.1943,0.9172,0.0928,0.9159
29257,-0.1841,0.0608,0.8774,0.0883,0.9007
29277,0.2324,0.0989,0.9363,0.0741,0.9150
29297,0.0171,-0.2212,0.8892,0.0770,0.9078
29317,-0.0828,0.2141,0.8989,0.0892,0.9037
29337,0.2988,-0.0911,0.9336,0.0928,0.9178
29357,-0.1541,-0.0596,0.8787,0.0789,0.9027
29377,0.1213,0.1855,0.9221,0.0689,0.9106
29397,0.1604,-0.2246,0.9141,0.0858,0.9148
29417,-0.1709,0.1326,0.8862,0.0929,0.9029
29437,0.2781,0.0403,0.9382,0.0819,0.9180
29457,-0.0439,-0.1885,0.8796,0.0751,0.9056
29477,-0.0325,0.2300,0.9053,0.0852,0.9051
29497,0.2712,-0.1494,0.9255,0.0934,0.9159
29517,-0.0515,-0.1873,0.8879,0.0684,0.9078
29537,-0.0369,0.2244,0.9063,0.0919,0.9050
29557,0.2732,-0.1399,0.9229,0.0883,0.9159
29577,-0.1733,-0.0247,0.8726,0.0829,0.8993
29597,0.1597,0.1702,0.9304,0.0734,0.9108
29617,0.1191,-0.2380,0.9111,0.0829,0.9138
29637,-0.1655,0.1604,0.8875,0.0966,0.9027
29657,0.2932,0.0159,0.9460,0.0874,0.9203
29677,-0.0662,-0.1829,0.8914,0.0761,0.9105
29697,-0.0293,0.2273,0.9038,0.0846,0.9080
29717,0.2776,-0.1458,0.9236,0.0943,0.9175
29737,-0.1748,-0.0229,0.8779,0.0827,0.9021
29757,0.1558,0.1731,0.9302,0.0718,0.9130
29777,0.1069,-0.2402,0.9182,0.0849,0.9167
29797,-0.1621,0.1584,0.8901,0.0936,0.9060
29817,0.2961,0.0259,0.9448,0.0889,0.9222
29837,-0.0544,-0.1907,0.8892,0.0769,0.9113
29857,-0.0420,0.2302,0.9028,0.0865,0.9082
29877,0.2822,-0.1372,0.9236,0.0947,0.9176
29897,-0.1628,-0.0366,0.8784,0.0795,0.9025
29917,0.1335,0.1833,0.9243,0.0704,0.9112
29937,0.1602,-0.2231,0.9167,0.0852,0.9160
29957,-0.1809,0.1206,0.8857,0.0936,0.9036
29977,0.2751,0.0627,0.9363,0.0829,0.9178
29997,-0.0054,-0.2136,0.8777,0.0775,0.9058
30017,-0.0857,0.2144,0.9050,0.0895,0.9041
30037,0.3057,-0.0923,0.9360,0.0951,0.9189
30057,-0.1450,-0.0996,0.8809,0.0801,0.9045
30077,0.0723,0.2166,0.9072,0.0762,0.9065
30097,0.2131,-0.2012,0.9119,0.0892,0.9121
30117,-0.1907,0.0525,0.8850,0.0890,0.9003
30137,0.2312,0.1199,0.9255,0.0773,0.9115
30157,0.0532,-0.2329,0.9055,0.0796,0.9110
30177,-0.1323,0.1855,0.8933,0.0924,0.9033
30197,0.3083,-0.0144,0.9436,0.0915,0.9205
30217,-0.0791,-0.1611,0.8950,0.0744,0.9111
30237,-0.0090,0.2288,0.9063,0.0824,0.9096
30257,0.2644,-0.1550,0.9236,0.0919,0.9184
30277,-0.1772,-0.0273,0.8745,0.0839,0.9018
30297,0.1528,0.1865,0.9224,0.0748,0.9104
30317,0.1501,-0.2290,0.9185,0.0858,0.9157
30337,-0.1699,0.1145,0.8794,0.0900,0.9015
30357,0.2644,0.0686,0.9353,0.0796,0.9159
30377,0.0032,-0.2151,0.8911,0.0764,0.9087
30397,-0.0947,0.2109,0.8997,0.0904,0.9043
30417,0.3044,-0.0630,0.9409,0.0922,0.9205
30437,-0.1245,-0.1287,0.8877,0.0787,0.9081
30457,0.0374,0.2297,0.9084,0.0800,0.9089
30477,0.2500,-0.1829,0.9158,0.0937,0.9155
30497,-0.1929,0.0149,0.8796,0.0889,0.9009
30517,0.1772,0.1580,0.9358,0.0721,0.9141
30537,0.1240,-0.2390,0.9163,0.0853,0.9174
30557,-0.1753,0.1384,0.8894,0.0946,0.9058
30577,0.2734,0.0579,0.9397,0.0829,0.9202
30597,-0.0037,-0.2124,0.8813,0.0765,0.9086
30617,-0.0840,0.2151,0.9019,0.0893,0.9051
30637,0.2444,0.1162,0.9346,0.0738,0.9191
30657,0.0466,-0.2268,0.9028,0.0860,0.9136
30677,-0.1311,0.1870,0.8972,0.0890,0.9072
30697,0.3054,-0.0107,0.9478,0.0901,0.9245
30717,-0.0750,-0.1807,0.8816,0.0811,0.9097
30737,-0.0425,0.2275,0.9033,0.0843,0.9075
30757,0.2871,-0.1250,0.9263,0.0945,0.9179
30777,-0.1592,-0.0735,0.8787,0.0809,0.9029
30797,0.0916,0.2141,0.9192,0.0757,0.9094
30817,0.2053,-0.2039,0.9167,0.0890,0.9153
30837,-0.1931,0.0374,0.8809,0.0883,0.9014
30857,0.2078,0.1482,0.9299,0.0773,0.9132
30877,0.1018,-0.2434,0.9067,0.0850,0.9134
30897,-0.1609,0.1577,0.9001,0.0942,0.9065
30917,0.2822,0.0547,0.9443,0.0846,0.9224
30937,-0.0125,-0.2217,0.8857,0.0810,0.9113
30957,-0.0869,0.2068,0.9021,0.0880,0.9069
30977,0.2991,-0.0483,0.9485,0.0892,0.9244
30997,-0.1121,-0.1511,0.8835,0.0798,0.9100
31017,0.0073,0.2239,0.9045,0.0801,0.9084
31037,0.2769,-0.1477,0.9158,0.0933,0.9157
31057,-0.1753,-0.0439,0.8772,0.0843,0.9006
31077,0.1230,0.2012,0.9170,0.0750,0.9075
31097,0.1968,-0.2161,0.9194,0.0893,0.9149
31117,-0.1926,0.0591,0.8860,0.0909,0.9024
31137,0.2136,0.1377,0.9336,0.0759,0.9151
31157,0.0969,-0.2395,0.9092,0.0832,0.9155
31177,-0.1638,0.1570,0.8850,0.0951,0.9033
31197,0.2854,0.0627,0.9402,0.0859,0.9191
31217,0.0095,-0.2173,0.8884,0.0781,0.9100
31237,-0.1082,0.2068,0.9050,0.0917,0.9067
31257,0.3064,-0.0247,0.9404,0.0901,0.9221
31277,-0.0916,-0.1787,0.8892,0.0822,0.9103
31297,-0.0278,0.2280,0.9026,0.0843,0.9076
31317,0.2874,-0.1130,0.9248,0.0917,0.9177
31337,-0.1553,-0.0901,0.8818,0.0815,0.9039
31357,0.0715,0.2200,0.9160,0.0771,0.9087
31377,0.2429,-0.1890,0.9219,0.0929,0.9172
31397,-0.1855,-0.0066,0.8733,0.0866,0.9003
31417,0.1458,0.1853,0.9268,0.0737,0.9105
31437,0.1738,-0.2305,0.9192,0.0892,0.9166
31457,-0.1865,0.0745,0.8804,0.0902,0.9021
31477,0.2205,0.1299,0.9287,0.0763,0.9135
31497,0.0791,-0.2510,0.9116,0.0858,0.9149
31517,-0.1604,0.1553,0.9004,0.0936,0.9076
31537,0.2769,0.0591,0.9475,0.0842,0.9238
31557,0.0071,-0.2300,0.8945,0.0805,0.9155
31577,-0.1138,0.2039,0.8945,0.0931,0.9072
31597,0.3057,-0.0051,0.9390,0.0899,0.9218
31617,-0.0635,-0.2014,0.8872,0.0818,0.9103
31637,-0.0647,0.2300,0.8965,0.0905,0.9051
31657,0.3018,-0.0735,0.9426,0.0926,0.9214
31677,-0.1157,-0.1577,0.8918,0.0812,0.9105
31697,-0.0071,0.2427,0.9043,0.0875,0.9085
31717,0.2759,-0.1199,0.9260,0.0900,0.9183
31737,-0.1477,-0.0962,0.8828,0.0792,0.9049
31757,-0.1270,0.1997,0.8953,0.0837,0.9023
31777,0.3062,0.0112,0.9497,0.0994,0.9195
31797,-0.0413,-0.2180,0.8794,0.0828,0.9070
31817,-0.0801,0.2246,0.9028,0.0889,0.9050
31837,0.3042,-0.0413,0.9434,0.0933,0.9210
31857,-0.0972,-0.1777,0.8879,0.0816,0.9094
31877,-0.0352,0.2300,0.9063,0.0852,0.9081
31897,0.2988,-0.0952,0.9385,0.0944,0.9221
31917,-0.1260,-0.1365,0.8860,0.0795,0.9090
31937,0.0073,0.2344,0.9075,0.0834,0.9087
31957,0.2769,-0.1338,0.9216,0.0920,0.9173
31977,-0.1575,-0.0840,0.8816,0.0809,0.9036
31997,0.0669,0.2268,0.9070,0.0792,0.9058
32017,0.2476,-0.1765,0.9207,0.0919,0.9147
32037,-0.1848,-0.0439,0.8801,0.0860,0.9009
32057,0.1169,0.2122,0.9158,0.0786,0.9071
32077,0.2263,-0.1995,0.9119,0.0910,0.9129
32097,-0.1936,0.0056,0.8760,0.0890,0.8980
32117,0.1531,0.1960,0.9282,0.0777,0.9096
32137,0.1924,-0.2266,0.9165,0.0917,0.9155
32157,-0.1946,0.0327,0.8850,0.0897,0.9025
32177,0.1851,0.1738,0.9277,0.0780,0.9130
32197,0.1499,-0.2358,0.9187,0.0873,0.9178
32217,-0.1924,0.0894,0.8806,0.0934,0.9030
32237,0.2190,0.1436,0.9324,0.0785,0.9153
32257,0.1160,-0.2498,0.9185,0.0885,0.9187
32277,-0.1765,0.1140,0.8816,0.0919,0.9042
32297,0.2524,0.1128,0.9382,0.0820,0.9185
32317,0.0835,-0.2524,0.9114,0.0863,0.9184
32337,-0.1711,0.1558,0.8887,0.0980,0.9061
32357,0.2642,0.0835,0.9438,0.0815,0.9217
32377,0.0503,-0.2551,0.9033,0.0870,0.9176
32397,-0.1619,0.1780,0.9021,0.0990,0.9100
32417,0.2729,0.0657,0.9407,0.0830,0.9234
32437,0.0330,-0.2461,0.8982,0.0847,0.9169
32457,-0.1479,0.1875,0.8928,0.0971,0.9070
32477,0.2869,0.0520,0.9424,0.0862,0.9222
32497,0.0183,-0.2380,0.8865,0.0835,0.9121
32517,-0.1294,0.1982,0.8931,0.0954,0.9040
32537,0.2974,0.0354,0.9380,0.0874,0.9193
32557,-0.0042,-0.2358,0.8816,0.0849,0.9081
32577,-0.1179,0.2158,0.8975,0.0973,0.9027
32597,0.2910,0.0195,0.9431,0.0851,0.9197
32617,-0.0256,-0.2349,0.8840,0.0866,0.9087
32637,-0.1052,0.2131,0.8987,0.0936,0.9038
32657,0.3013,0.0088,0.9399,0.0884,0.9197
32677,-0.0244,-0.2253,0.8872,0.0830,0.9097
32697,-0.1035,0.2085,0.9070,0.0925,0.9069
32717,0.3030,0.0085,0.9482,0.0885,0.9245
32737,-0.0273,-0.2197,0.8826,0.0822,0.9115
32757,-0.1060,0.2085,0.8936,0.0928,0.9042
32777,0.2981,0.0029,0.9404,0.0872,0.9201
32797,-0.0266,-0.2288,0.8806,0.0838,0.9081
32817,-0.1179,0.2129,0.8950,0.0965,0.9020
32837,0.2966,0.0188,0.9446,0.0880,0.9196
32857,-0.0093,-0.2427,0.8831,0.0861,0.9090
32877,-0.1296,0.2014,0.8962,0.0965,0.9027
32897,0.2969,0.0396,0.9404,0.0885,0.9189
32917,0.0046,-0.2429,0.8870,0.0854,0.9098
32937,-0.1372,0.1902,0.8936,0.0955,0.9023
32957,0.2878,0.0542,0.9412,0.0863,0.9187
32977,0.0198,-0.2505,0.8918,0.0869,0.9115
32997,-0.1599,0.1760,0.8965,0.0975,0.9041
33017,0.1150,0.2275,0.9138,0.0726,0.9110
33037,0.2544,-0.1973,0.9219,0.1059,0.9170
33057,-0.1846,-0.0610,0.8816,0.0877,0.9029
33077,0.0730,0.2351,0.9102,0.0789,0.9071
33097,0.2520,-0.1682,0.9165,0.0941,0.9137
33117,-0.1504,-0.0881,0.8870,0.0783,0.9029
33137,0.0371,0.2334,0.9084,0.0805,0.9054
33157,0.2754,-0.1304,0.9224,0.0914,0.9151
33177,-0.1465,-0.1270,0.8833,0.0832,0.9030
33197,0.0010,0.2363,0.9070,0.0842,0.9043
33217,0.2930,-0.0977,0.9248,0.0922,0.9153
33237,-0.1111,-0.1619,0.8887,0.0803,0.9055
33257,-0.0425,0.2361,0.9055,0.0889,0.9049
33277,0.3047,-0.0530,0.9485,0.0923,0.9230
33297,-0.0815,-0.2063,0.8875,0.0853,0.9112
33317,-0.0867,0.2258,0.8909,0.0934,0.9036
33337,0.3110,0.0088,0.9514,0.0927,0.9231
33357,-0.0159,-0.2329,0.8804,0.0848,0.9103
33377,-0.1309,0.1968,0.8994,0.0952,0.9046
33397,0.2952,0.0688,0.9417,0.0888,0.9209
33417,0.0422,-0.2600,0.8975,0.0901,0.9149
33437,-0.1663,0.1606,0.8970,0.0973,0.9062
33457,0.2498,0.1267,0.9387,0.0820,0.9204
33477,0.1082,-0.2600,0.9102,0.0922,0.9195
33497,-0.1938,0.0920,0.8811,0.0944,0.9043
33517,0.1958,0.1755,0.9260,0.0795,0.9142
33537,0.1831,-0.2341,0.9185,0.0927,0.9190
33557,-0.1941,0.0154,0.8796,0.0893,0.9033
33577,0.1270,0.2170,0.9124,0.0794,0.9084
33597,0.2456,-0.2004,0.9111,0.0965,0.9138
33617,-0.1746,-0.0676,0.8833,0.0852,0.9012
33637,0.0334,0.2449,0.9045,0.0848,0.9031
33657,0.2983,-0.1235,0.9233,0.0969,0.9143
33677,-0.1177,-0.1516,0.8792,0.0811,0.9015
33697,-0.0500,0.2493,0.8975,0.0932,0.8998
33717,0.3203,-0.0344,0.9436,0.0960,0.9184
33737,-0.0444,-0.2202,0.8828,0.0849,0.9070
33757,-0.1201,0.2212,0.8896,0.0986,0.8998
33777,0.2922,0.0583,0.9495,0.0876,0.9197
33797,0.0422,-0.2720,0.8896,0.0944,0.9119
33817,-0.1685,0.1372,0.8928,0.0936,0.9027
33837,0.2280,0.1377,0.9268,0.0790,0.9137
33857,0.1411,-0.2556,0.9177,0.0921,0.9181
33877,-0.1843,0.0549,0.8760,0.0889,0.9016
33897,0.1499,0.2019,0.9307,0.0784,0.9129
33917,0.2224,-0.2117,0.9180,0.0937,0.9187
33937,-0.1750,-0.0588,0.8882,0.0841,0.9062
33957,0.0459,0.2476,0.9114,0.0860,0.9087
33977,0.2839,-0.1277,0.9250,0.0934,0.9184
33997,-0.1201,-0.1567,0.8831,0.0818,0.9058
34017,-0.0596,0.2378,0.9089,0.0912,0.9060
34037,0.3167,-0.0076,0.9412,0.0941,0.9218
34057,-0.0225,-0.2537,0.8899,0.0912,0.9124
34077,-0.1470,0.1897,0.9006,0.0980,0.9060
34097,0.2737,0.1067,0.9377,0.0870,0.9201
34117,0.0999,-0.2698,0.9146,0.0938,0.9208
34137,-0.1812,0.0857,0.8801,0.0911,0.9048
34157,0.1760,0.1956,0.9360,0.0804,0.9173
34177,0.2080,-0.2205,0.9185,0.0932,0.9216
34197,-0.1809,-0.0610,0.8777,0.0864,0.9051
34217,0.0466,0.2437,0.9033,0.0853,0.9054
34237,0.2915,-0.1211,0.9219,0.0941,0.9154
34257,-0.1086,-0.1721,0.8901,0.0819,0.9061
34277,-0.0720,0.2410,0.8970,0.0951,0.9022
34297,0.3047,0.0083,0.9438,0.0904,0.9197
34317,0.0049,-0.2612,0.8894,0.0908,0.9114
34337,-0.1582,0.1704,0.8906,0.0972,0.9020
34357,0.2429,0.1340,0.9370,0.0824,0.9166
34377,0.1362,-0.2607,0.9263,0.0942,0.9224
34397,-0.1987,0.0173,0.8813,0.0900,0.9064
34417,0.1311,0.2202,0.9172,0.0832,0.9116
34437,0.2637,-0.1689,0.9185,0.0928,0.9188
34457,-0.1487,-0.1238,0.8855,0.0840,0.9060
34477,-0.1753,0.1453,0.8911,0.0853,0.9008
34497,0.2190,0.1648,0.9309,0.0887,0.9122
34517,0.1750,-0.2483,0.9189,0.0993,0.9168
34537,-0.1921,-0.0015,0.8838,0.0838,0.9041
34557,0.0896,0.2434,0.9182,0.0850,0.9102
34577,0.2781,-0.1409,0.9165,0.0955,0.9164
34597,-0.1267,-0.1602,0.8896,0.0836,0.9064
34617,-0.0603,0.2581,0.9009,0.0968,0.9043
34637,0.3142,-0.0056,0.9456,0.0945,0.9216
34657,0.0029,-0.2612,0.8889,0.0916,0.9124
34677,-0.1611,0.1792,0.8977,0.0995,0.9049
34697,0.2451,0.1375,0.9341,0.0829,0.9179
34717,0.1389,-0.2737,0.9202,0.0991,0.9215
34737,-0.1907,0.0168,0.8770,0.0881,0.9044
34757,0.1155,0.2356,0.9094,0.0854,0.9080
34777,0.2642,-0.1726,0.9209,0.0951,0.9167
34797,-0.1516,-0.1426,0.8801,0.0870,0.9033
34817,-0.0471,0.2485,0.8979,0.0936,0.9010
34837,0.3198,-0.0061,0.9463,0.0958,0.9199
34857,-0.0049,-0.2656,0.8784,0.0931,0.9082
34877,-0.1533,0.1755,0.8899,0.0979,0.8994
34897,0.2437,0.1433,0.9343,0.0836,0.9142
34917,0.1489,-0.2615,0.9082,0.0958,0.9156
34937,-0.1907,0.0137,0.8794,0.0885,0.9008
34957,0.1050,0.2417,0.9116,0.0854,0.9062
34977,0.2808,-0.1560,0.9214,0.0962,0.9159
34997,-0.1265,-0.1567,0.8953,0.0841,0.9074
35017,-0.0691,0.2495,0.9019,0.0966,0.9048
35037,0.3088,0.0190,0.9470,0.0915,0.9226
35057,0.0203,-0.2700,0.8884,0.0939,0.9133
35077,-0.1660,0.1453,0.8875,0.0948,0.9021
35097,0.2109,0.1790,0.9294,0.0824,0.9143
35117,0.1838,-0.2410,0.9172,0.0958,0.9185
35137,-0.1768,-0.0325,0.8853,0.0836,0.9050
35157,0.0378,0.2607,0.9045,0.0884,0.9063
35177,0.2991,-0.1204,0.9216,0.0981,0.9157
35197,-0.0867,-0.2090,0.8892,0.0861,0.9068
35217,-0.1042,0.2402,0.8884,0.1014,0.8994
35237,0.2903,0.0757,0.9431,0.0884,0.9175
35257,0.0715,-0.2815,0.9167,0.0976,0.9190
35277,-0.1851,0.0837,0.8857,0.0910,0.9053
35297,0.1633,0.2146,0.9331,0.0839,0.9167
35317,0.2334,-0.1941,0.9180,0.0927,0.9212
35337,-0.1594,-0.1191,0.8938,0.0852,0.9103
35357,-0.0200,0.2544,0.9092,0.0922,0.9098
35377,0.3105,-0.0164,0.9441,0.0918,0.9253
35397,-0.0122,-0.2627,0.8760,0.0936,0.9110
35417,-0.1555,0.1663,0.8950,0.0958,0.9030
35437,0.2361,0.1492,0.9280,0.0829,0.9146
35457,0.1582,-0.2510,0.9180,0.0938,0.9188
35477,-0.1951,-0.0212,0.8745,0.0887,0.9020
35497,0.0723,0.2588,0.9138,0.0902,0.9070
35517,0.2947,-0.1096,0.9199,0.0937,0.9159
35537,-0.0989,-0.2087,0.8889,0.0894,0.9065
35557,-0.1047,0.2268,0.9016,0.0971,0.9032
35577,0.2905,0.0786,0.9382,0.0889,0.9186
35597,0.0852,-0.2786,0.9121,0.0962,0.9188
35617,-0.1941,0.0737,0.8831,0.0931,0.9042
35637,0.1355,0.2317,0.9187,0.0844,0.9113
35657,0.2612,-0.1877,0.9177,0.0988,0.9177
35677,-0.1333,-0.1511,0.8838,0.0835,0.9054
35697,-0.0676,0.2585,0.9075,0.0994,0.9052
35717,0.3110,0.0190,0.9495,0.0931,0.9235
35737,0.0276,-0.2739,0.8977,0.0944,0.9169
35757,-0.1760,0.1299,0.8806,0.0950,0.9025
35777,0.1821,0.2075,0.9404,0.0841,0.9175
35797,0.2246,-0.2173,0.9153,0.0976,0.9207
35817,-0.1570,-0.1042,0.8787,0.0832,0.9052
35837,-0.0347,0.2573,0.9016,0.0932,0.9041
35857,0.3115,-0.0125,0.9502,0.0936,0.9229
35877,0.0024,-0.2690,0.8792,0.0942,0.9106
35897,-0.1602,0.1558,0.8892,0.0952,0.9008
35917,0.2095,0.1919,0.9229,0.0845,0.9116
35937,0.1965,-0.2366,0.9189,0.0976,0.9172
35957,-0.1648,-0.0901,0.8735,0.0833,0.9012
35977,-0.0090,0.2671,0.9077,0.0948,0.9034
35997,0.3079,-0.0322,0.9385,0.0921,0.9189
36017,-0.0110,-0.2673,0.8826,0.0939,0.9087
36037,-0.1670,0.1567,0.8884,0.0968,0.8992
36057,0.0127,0.2651,0.9097,0.0791,0.9060
36077,0.3096,-0.0466,0.9448,0.1007,0.9209
36097,-0.0208,-0.2595,0.8811,0.0976,0.9081
36117,-0.1677,0.1687,0.9058,0.0942,0.9054
36137,0.2229,0.1560,0.9314,0.0813,0.9169
36157,0.1960,-0.2439,0.9248,0.0995,0.9227
36177,-0.1833,-0.0750,0.8789,0.0871,0.9065
36197,-0.0066,0.2625,0.9063,0.0925,0.9068
36217,0.3103,-0.0356,0.9429,0.0944,0.9224
36237,-0.0142,-0.2683,0.8772,0.0944,0.9096
36257,-0.1587,0.1655,0.8906,0.0965,0.9006
36277,0.2214,0.1799,0.9287,0.0856,0.9132
36297,0.2043,-0.2341,0.9143,0.0968,0.9174
36317,-0.1777,-0.0801,0.8828,0.0871,0.9037
36337,-0.0098,0.2639,0.9070,0.0932,0.9050
36357,0.3127,-0.0273,0.9431,0.0937,0.9216
36377,-0.0029,-0.2661,0.8799,0.0935,0.9097
36397,-0.1697,0.1577,0.8911,0.0979,0.9007
36417,0.2070,0.1865,0.9360,0.0838,0.9152
36437,0.2085,-0.2300,0.9170,0.0972,0.9195
36457,-0.1670,-0.0974,0.8857,0.0847,0.9065
36477,-0.0222,0.2625,0.9043,0.0944,0.9058
36497,0.3123,-0.0012,0.9539,0.0929,0.9254
36517,0.0205,-0.2844,0.8914,0.0979,0.9164
36537,-0.1824,0.1396,0.8867,0.0991,0.9037
36557,0.1787,0.2021,0.9390,0.0825,0.9177
36577,0.2322,-0.2144,0.9153,0.0980,0.9211
36597,-0.1462,-0.1411,0.8853,0.0842,0.9082
36617,-0.0564,0.2620,0.9043,0.0997,0.9061
36637,0.3098,0.0344,0.9421,0.0922,0.9221
36657,0.0483,-0.2864,0.9031,0.0980,0.9180
36677,-0.1865,0.0940,0.8782,0.0934,0.9022
36697,0.1494,0.2234,0.9177,0.0841,0.9098
36717,0.2605,-0.1777,0.9163,0.0955,0.9164
36737,-0.1182,-0.1675,0.8911,0.0828,0.9070
36757,-0.0867,0.2456,0.8977,0.0993,0.9027
36777,0.2898,0.0801,0.9434,0.0881,0.9200
36797,0.0962,-0.2866,0.9099,0.0999,0.9192
36817,-0.1951,0.0278,0.8777,0.0899,0.9030
36837,0.0962,0.2585,0.9077,0.0905,0.9065
36857,0.2944,-0.1311,0.9238,0.0969,0.9168
36877,-0.0806,-0.2231,0.8909,0.0886,0.9083
36897,-0.1360,0.2078,0.8945,0.1001,0.9015
36917,0.2571,0.1428,0.9336,0.0874,0.9157
36937,0.1719,-0.2600,0.9248,0.0987,0.9219
36957,-0.1846,-0.0540,0.8818,0.0872,0.9064
36977,0.0066,0.2766,0.9089,0.0964,0.9079
36997,0.3215,-0.0352,0.9412,0.0964,0.9233
37017,0.0054,-0.2773,0.8826,0.0964,0.9120
37037,-0.1860,0.1443,0.8926,0.1007,0.9023
37057,0.1843,0.1936,0.9290,0.0816,0.9136
37077,0.2395,-0.2144,0.9158,0.0986,0.9188
37097,-0.1514,-0.1326,0.8875,0.0849,0.9069
37117,-0.0686,0.2515,0.9053,0.0973,0.9055
37137,0.3088,0.0537,0.9497,0.0934,0.9239
37157,0.0730,-0.2898,0.9084,0.0995,0.9213
37177,-0.1980,0.0552,0.8875,0.0925,0.9073
37197,0.1069,0.2490,0.9199,0.0879,0.9133
37217,0.2917,-0.1204,0.9194,0.0942,0.9201
37237,-0.0830,-0.2214,0.8938,0.0895,0.9113
37257,-0.1357,0.2114,0.8906,0.1001,0.9027
37277,0.2546,0.1423,0.9321,0.0864,0.9161
37297,0.1763,-0.2612,0.9229,0.1001,0.9216
37317,-0.1897,-0.0469,0.8816,0.0888,0.9059
37337,0.0012,0.2666,0.9019,0.0925,0.9055
37357,0.3145,-0.0317,0.9448,0.0949,0.9223
37377,0.0044,-0.2778,0.8845,0.0963,0.9120
37397,-0.1846,0.1379,0.8943,0.0985,0.9030
37417,0.1772,0.2141,0.9290,0.0855,0.9142
37437,0.3186,0.0156,0.9424,0.0822,0.9307
37457,0.0525,-0.2937,0.9033,0.1052,0.9231
37477,-0.1926,0.0923,0.8828,0.1007,0.9057
37497,0.1326,0.2488,0.9216,0.0853,0.9143
37517,0.2695,-0.1558,0.9260,0.0936,0.9225
37537,-0.0981,-0.2119,0.8928,0.0909,0.9121
37557,-0.1216,0.2200,0.8994,0.0998,0.9059
37577,0.2654,0.1353,0.9377,0.0870,0.9205
37597,0.1604,-0.2786,0.9229,0.1032,0.9245
37617,-0.1846,-0.0559,0.8740,0.0876,0.9059
37637,-0.0012,0.2759,0.9072,0.0973,0.9067
37657,0.3164,-0.0190,0.9438,0.0943,0.9231
37677,0.0142,-0.2886,0.8840,0.0994,0.9127
37697,-0.1819,0.1367,0.8811,0.0989,0.8993
37717,0.1716,0.2253,0.9302,0.0870,0.9122
37737,0.2529,-0.1912,0.9106,0.0976,0.9161
37757,-0.1187,-0.1809,0.8882,0.0857,0.9061
37777,-0.0964,0.2444,0.9011,0.1012,0.9028
37797,0.2881,0.1040,0.9380,0.0897,0.9186
37817,0.1233,-0.2983,0.9124,0.1055,0.9196
37837,-0.1982,-0.0007,0.8860,0.0906,0.9056
37857,0.0398,0.2759,0.9160,0.0946,0.9101
37877,0.3157,-0.0725,0.9316,0.0975,0.9217
37897,-0.0208,-0.2727,0.8867,0.0956,0.9119
37917,-0.1736,0.1667,0.8926,0.1017,0.9024
37937,0.1946,0.2041,0.9294,0.0855,0.9144
37957,0.2458,-0.2039,0.9170,0.0981,0.9196
37977,-0.1399,-0.1609,0.8877,0.0875,0.9078
37997,-0.0886,0.2527,0.8984,0.1013,0.9037
38017,0.2949,0.0928,0.9360,0.0910,0.9186
38037,0.1143,-0.3040,0.9114,0.1068,0.9192
38057,-0.2021,0.0007,0.8826,0.0914,0.9043
38077,0.0422,0.2749,0.9050,0.0946,0.9058
38097,0.3157,-0.0649,0.9365,0.0971,0.9201
38117,-0.0193,-0.2703,0.8748,0.0955,0.9072
38137,-0.1750,0.1504,0.8909,0.0982,0.8987
38157,0.1750,0.2080,0.9272,0.0833,0.9106
38177,0.2566,-0.2041,0.9170,0.1009,0.9172
38197,-0.1211,-0.1792,0.8870,0.0851,0.9066
38217,-0.1035,0.2461,0.8997,0.1035,0.9026
38237,0.2815,0.1226,0.9426,0.0905,0.9198
38257,0.1562,-0.2756,0.9141,0.1018,0.9213
38277,-0.1860,-0.0493,0.8792,0.0880,0.9050
38297,-0.0117,0.2817,0.8992,0.0985,0.9039
38317,0.3213,-0.0078,0.9460,0.0964,0.9218
38337,0.0334,-0.2961,0.8940,0.1016,0.9150
38357,-0.1975,0.0906,0.8750,0.0964,0.8990
38377,0.1189,0.2620,0.9138,0.0916,0.9064
38397,0.2957,-0.1230,0.9177,0.0969,0.9147
38417,-0.0735,-0.2446,0.8892,0.0946,0.9064
38437,-0.1492,0.1890,0.8979,0.0986,0.9009
38457,0.2202,0.1863,0.9333,0.0864,0.9149
38477,0.2158,-0.2314,0.9202,0.0996,0.9203
38497,-0.1431,-0.1438,0.8894,0.0837,0.9089
38517,-0.0889,0.2629,0.8979,0.1039,0.9045
38537,0.2983,0.0891,0.9409,0.0926,0.9205
38557,0.1289,-0.2886,0.9175,0.1030,0.9224
38577,-0.2000,-0.0310,0.8799,0.0907,0.9061
38597,0.0112,0.2686,0.9004,0.0939,0.9050
38617,0.3191,-0.0190,0.9463,0.0958,0.9226
38637,0.0259,-0.2964,0.8926,0.1005,0.9153
38657,-0.1931,0.0876,0.8757,0.0949,0.8995
38677,0.1150,0.2490,0.9167,0.0887,0.9070
38697,0.3022,-0.1130,0.9197,0.0960,0.9162
38717,-0.0527,-0.2502,0.8911,0.0923,0.9086
38737,-0.1697,0.1726,0.8960,0.1010,0.9014
38757,0.1982,0.2026,0.9255,0.0860,0.9125
38777,0.2512,-0.2063,0.9133,0.0999,0.9173
38797,-0.1282,-0.1785,0.8848,0.0875,0.9058
38817,-0.1040,0.2444,0.8984,0.1028,0.9017
38837,0.2744,0.1348,0.9358,0.0897,0.9171
38857,0.1714,-0.2590,0.9219,0.0994,0.9217
38877,-0.1760,-0.0852,0.8804,0.0871,0.9061
38897,-0.0344,0.2644,0.8997,0.0961,0.9040
38917,0.3154,0.0442,0.9475,0.0939,0.9227
38937,0.0776,-0.3027,0.9055,0.1042,0.9197
38957,-0.1074,-0.2109,0.8894,0.0754,0.9127
38977,-0.1309,0.2078,0.8911,0.1060,0.9017
38997,0.2471,0.1636,0.9304,0.0953,0.9133
39017,0.2009,-0.2551,0.9255,0.0982,0.9219
39037,-0.1562,-0.1387,0.8875,0.0831,0.9101
39057,-0.0779,0.2646,0.9028,0.1066,0.9059
39077,0.2971,0.1006,0.9426,0.0940,0.9219
39097,0.1440,-0.2798,0.9170,0.1002,0.9238
39117,-0.1816,-0.0579,0.8811,0.0861,0.9077
39137,-0.0103,0.2769,0.9016,0.0991,0.9060
39157,0.3096,0.0300,0.9451,0.0910,0.9231
39177,0.0579,-0.3062,0.9094,0.1051,0.9209
39197,-0.1948,0.0342,0.8855,0.0898,0.9065
39217,0.0637,0.2800,0.9148,0.0959,0.9108
39237,0.3142,-0.0613,0.9348,0.0956,0.9232
39257,-0.0039,-0.2834,0.8850,0.0987,0.9127
39277,-0.1921,0.1135,0.8757,0.0974,0.8977
39297,0.1445,0.2424,0.9226,0.0893,0.9082
39317,0.2883,-0.1499,0.9211,0.0983,0.9171
39337,-0.0754,-0.2441,0.8967,0.0927,0.9108
39357,-0.1628,0.1804,0.8960,0.1009,0.9030
39377,0.1992,0.2021,0.9304,0.0869,0.9149
39397,0.2532,-0.2053,0.9177,0.1002,0.9204
39417,-0.1150,-0.1892,0.8889,0.0860,0.9097
39437,-0.1287,0.2288,0.8889,0.1036,0.9010
39457,0.2561,0.1609,0.9365,0.0902,0.9165
39477,0.2007,-0.2415,0.9119,0.0990,0.9187
39497,-0.1548,-0.1499,0.8877,0.0878,0.9073
39517,-0.0776,0.2517,0.9070,0.1005,0.9057
39537,0.2786,0.1248,0.9424,0.0894,0.9219
39557,0.1624,-0.2683,0.9241,0.1009,0.9257
39577,-0.1714,-0.0918,0.8809,0.0855,0.9093
39597,-0.0520,0.2693,0.9075,0.0999,0.9083
39617,0.3030,0.0710,0.9412,0.0917,0.9234
39637,0.1138,-0.3025,0.9121,0.1062,0.9228
39657,-0.1936,-0.0422,0.8787,0.0883,0.9062
39677,0.0007,0.2856,0.9006,0.1011,0.9049
39697,0.3125,0.0400,0.9563,0.0929,0.9258
39717,0.0708,-0.3071,0.9097,0.1066,0.9228
39737,-0.2004,-0.0044,0.8765,0.0897,0.9055
39757,0.0361,0.2849,0.9097,0.0988,0.9078
39777,0.3154,-0.0024,0.9490,0.0932,0.9255
39797,0.0500,-0.3057,0.9082,0.1044,0.9222
39817,-0.2041,0.0515,0.8843,0.0947,0.9068
39837,0.0554,0.2883,0.9099,0.0970,0.9099
39857,0.3220,-0.0396,0.9421,0.0974,0.9248
39877,0.0229,-0.3005,0.8884,0.1039,0.9152
39897,-0.1917,0.0815,0.8845,0.0938,0.9019
39917,0.0928,0.2695,0.9041,0.0918,0.9052
39937,0.3142,-0.0681,0.9253,0.0950,0.9167
39957,-0.0034,-0.2932,0.8813,0.1022,0.9070
39977,-0.2000,0.0959,0.8728,0.0977,0.8927
39997,0.1228,0.2595,0.9106,0.0924,0.9008
40017,0.3086,-0.0979,0.9238,0.0960,0.9132
40037,-0.0129,-0.2893,0.8879,0.0993,0.9069
40057,-0.1946,0.1177,0.8782,0.1004,0.8939
40077,0.1204,0.2612,0.9089,0.0919,0.9013
40097,0.3110,-0.1155,0.9253,0.0999,0.9139
40117,-0.0281,-0.2893,0.8772,0.1005,0.9040
40137,-0.2004,0.1384,0.8826,0.1049,0.8933
40157,0.1365,0.2466,0.9211,0.0898,0.9045
40177,0.3140,-0.1096,0.9224,0.0989,0.9156
40197,-0.0232,-0.2720,0.8840,0.0955,0.9068
40217,-0.1792,0.1292,0.8779,0.0979,0.8939
40237,0.1335,0.2578,0.9150,0.0907,0.9037
40257,0.3076,-0.1025,0.9214,0.0956,0.9146
40277,-0.0183,-0.2932,0.8762,0.1024,0.9041
40297,-0.1819,0.1206,0.8809,0.0980,0.8926
40317,0.1096,0.2671,0.9097,0.0914,0.9008
40337,0.3154,-0.0840,0.9280,0.0966,0.9146
40357,-0.0095,-0.3064,0.8845,0.1060,0.9068
40377,-0.1428,-0.1521,0.8906,0.0706,0.9028
40397,-0.0972,0.2546,0.8992,0.1111,0.8981
40417,0.2678,0.1550,0.9338,0.0977,0.9125
40437,0.2107,-0.2454,0.9221,0.0991,0.9200
40457,-0.1389,-0.1663,0.8843,0.0844,0.9080
40477,-0.1187,0.2427,0.9011,0.1062,0.9035
40497,0.2471,0.1790,0.9321,0.0914,0.9168
40517,0.2383,-0.2319,0.9158,0.1035,0.9209
40537,-0.1213,-0.2026,0.8926,0.0901,0.9113
40557,-0.1394,0.2344,0.8960,0.1087,0.9038
40577,0.2185,0.1948,0.9258,0.0870,0.9149
40597,0.2615,-0.2209,0.9150,0.1064,0.9197
40617,-0.1094,-0.2109,0.8862,0.0903,0.9086
40637,-0.1531,0.2146,0.8948,0.1064,0.9014
40657,0.2131,0.2029,0.9321,0.0887,0.9149
40677,0.2666,-0.1953,0.9114,0.1013,0.9187
40697,-0.0979,-0.2388,0.8879,0.0949,0.9090
40717,-0.1658,0.1875,0.8992,0.1037,0.9026
40737,0.1875,0.2212,0.9348,0.0896,0.9159
40757,0.2793,-0.1650,0.9202,0.0983,0.9221
40777,-0.0706,-0.2622,0.8884,0.0965,0.9123
40797,-0.1687,0.1609,0.8921,0.1001,0.9024
40817,0.1560,0.2485,0.9246,0.0916,0.9126
40837,0.2966,-0.1086,0.9177,0.0933,0.9193
40857,-0.0334,-0.2766,0.8782,0.0992,0.9074
40877,-0.1758,0.1084,0.8860,0.0922,0.8971
40897,0.1157,0.2678,0.9138,0.0928,0.9051
40917,0.3108,-0.0674,0.9290,0.0929,0.9179
40937,0.0068,-0.3049,0.8806,0.1053,0.9080
40957,-0.1877,0.0750,0.8809,0.0928,0.8956
40977,0.0784,0.3005,0.9089,0.1013,0.9024
40997,0.3223,-0.0332,0.9424,0.0953,0.9202
41017,0.0471,-0.3223,0.8994,0.1104,0.9158
41037,-0.2122,0.0381,0.8806,0.0977,0.9008
41057,0.0239,0.3091,0.9109,0.1041,0.9058
41077,0.3325,0.0134,0.9517,0.0995,0.9253
41097,0.0896,-0.3179,0.9109,0.1107,0.9232
41117,-0.2090,-0.0210,0.8826,0.0942,0.9071
41137,-0.0293,0.2786,0.9014,0.0987,0.9058
41157,0.3167,0.0684,0.9421,0.0968,0.9221
41177,0.1331,-0.2964,0.9160,0.1062,0.9232
41197,-0.1707,-0.0903,0.8816,0.0842,0.9080
41217,-0.0691,0.2720,0.8989,0.1039,0.9044
41237,0.2803,0.1309,0.9397,0.0907,0.9203
41257,0.1855,-0.2764,0.9253,0.1075,0.9252
41277,-0.1470,-0.1460,0.8926,0.0846,0.9134
41297,-0.1111,0.2651,0.9070,0.1095,0.9098
41317,0.2534,0.1782,0.9387,0.0908,0.9237
41337,0.2358,-0.2402,0.9197,0.1069,0.9265
41357,-0.1099,-0.2026,0.8901,0.0884,0.9145
41377,-0.1445,0.2292,0.8936,0.1084,0.9053
41397,0.1992,0.2075,0.9319,0.0849,0.9177
41417,0.2737,-0.1836,0.9202,0.1015,0.9231
41437,-0.0825,-0.2476,0.8982,0.0953,0.9153
41457,-0.1724,0.1682,0.8931,0.1012,0.9051
41477,0.1460,0.2502,0.9243,0.0895,0.9144
41497,0.3069,-0.1125,0.9194,0.0984,0.9211
41517,-0.0215,-0.2935,0.8794,0.1026,0.9096
41537,-0.1899,0.0952,0.8721,0.0953,0.8942
41557,0.0881,0.2844,0.9153,0.0969,0.9032
41577,0.2358,0.1960,0.9338,0.0750,0.9207
41597,0.2505,-0.2163,0.9189,0.1085,0.9231
41617,-0.0935,-0.2375,0.8955,0.1014,0.9125
41637,-0.1687,0.2002,0.9014,0.1064,0.9059
41657,0.1670,0.2522,0.9219,0.0878,0.9159
41677,0.3115,-0.1455,0.9165,0.1053,0.9213
41697,-0.0286,-0.2939,0.8872,0.1045,0.9116
41717,-0.2002,0.1140,0.8743,0.1021,0.8959
41737,0.0835,0.2898,0.9133,0.0965,0.9042
41757,0.3359,-0.0435,0.9431,0.1012,0.9218
41777,0.0486,-0.3223,0.9023,0.1101,0.9179
41797,-0.2117,0.0098,0.8848,0.0957,0.9038
41817,-0.0081,0.2974,0.9023,0.1031,0.9043
41837,0.3213,0.0684,0.9492,0.0974,0.9236
41857,0.1440,-0.3096,0.9189,0.1119,0.9253
41877,-0.1826,-0.1060,0.8865,0.0900,0.9108
41897,-0.0872,0.2808,0.8887,0.1096,0.9030
41917,0.2722,0.1492,0.9346,0.0917,0.9177
41937,0.2178,-0.2610,0.9250,0.1085,0.9238
41957,-0.1299,-0.1946,0.8857,0.0898,0.9112
41977,-0.1487,0.2144,0.8892,0.1052,0.9017
41997,0.1995,0.2212,0.9360,0.0909,0.9161
42017,0.2952,-0.1626,0.9163,0.1020,0.9215
42037,-0.0505,-0.2800,0.8813,0.0999,0.9102
42057,-0.1941,0.1287,0.8796,0.1020,0.8967
42077,0.1016,0.2742,0.9082,0.0940,0.9029
42097,0.3264,-0.0464,0.9412,0.0977,0.9202
42117,0.0439,-0.3125,0.9011,0.1063,0.9164
42137,-0.2085,-0.0071,0.8877,0.0928,0.9040
42157,-0.0215,0.2976,0.9087,0.1048,0.9060
42177,0.3206,0.0789,0.9375,0.0982,0.9211
42197,0.1599,-0.3066,0.9189,0.1122,0.9240
42217,-0.1643,-0.1345,0.8833,0.0876,0.9096
42237,-0.1072,0.2703,0.8965,0.1114,0.9037
42257,0.2529,0.1863,0.9358,0.0928,0.9186
42277,0.2439,-0.2249,0.9089,0.1046,0.9198
42297,-0.0950,-0.2549,0.8921,0.0971,0.9117
42317,-0.1768,0.1887,0.8921,0.1082,0.9018
42337,0.1514,0.2722,0.9226,0.0967,0.9121
42357,0.3184,-0.1062,0.9229,0.1015,0.9207
42377,0.0002,-0.3132,0.8916,0.1074,0.9134
42397,-0.2068,0.0667,0.8821,0.0978,0.8996
42417,0.0410,0.3032,0.9185,0.1023,0.9073
42437,0.3210,0.0388,0.9453,0.0944,0.9246
42457,0.1135,-0.3135,0.9128,0.1116,0.9234
42477,-0.1802,-0.0972,0.8889,0.0874,0.9103
42497,-0.0784,0.2781,0.8999,0.1075,0.9061
42517,0.2588,0.1702,0.9380,0.0903,0.9211
42537,0.2393,-0.2449,0.9155,0.1089,0.9235
42557,-0.1055,-0.2266,0.8938,0.0924,0.9140
42577,-0.1707,0.2007,0.8923,0.1083,0.9040
42597,0.1506,0.2598,0.9299,0.0918,0.9159
42617,0.3113,-0.1116,0.9207,0.1008,0.9223
42637,-0.0029,-0.3154,0.8904,0.1080,0.9143
42657,-0.2083,0.0461,0.8779,0.0952,0.8994
42677,0.0200,0.3003,0.9106,0.1028,0.9042
42697,0.3167,0.0510,0.9448,0.0952,0.9218
42717,0.1326,-0.3091,0.9187,0.1107,0.9238
42737,-0.1755,-0.1194,0.8833,0.0878,0.9094
42757,-0.1982,0.0710,0.8799,0.0794,0.8999
42777,0.0251,0.3113,0.9065,0.1043,0.9040
42797,0.3301,0.0400,0.9429,0.1071,0.9193
42817,0.1292,-0.3174,0.9146,0.1150,0.9203
42837,-0.1768,-0.1150,0.8882,0.0846,0.9089
42857,-0.1008,0.2734,0.9006,0.1088,0.9053
42877,0.2598,0.1799,0.9292,0.0951,0.9173
42897,0.2395,-0.2156,0.9148,0.1024,0.9202
42917,-0.0864,-0.2583,0.8955,0.0962,0.9133
42937,-0.1768,0.1609,0.8921,0.1016,0.9031
42957,0.1228,0.2717,0.9121,0.0943,0.9091
42977,0.3181,-0.0586,0.9243,0.0961,0.9190
42997,0.0530,-0.3318,0.8950,0.1114,0.9146
43017,-0.1943,-0.0103,0.8870,0.0895,0.9024
43037,-0.0442,0.3088,0.8994,0.1106,0.9018
43057,0.3086,0.1057,0.9475,0.0970,0.9212
43077,0.2017,-0.2773,0.9141,0.1094,0.9230
43097,-0.1338,-0.1958,0.8838,0.0911,0.9101
43117,-0.1514,0.2148,0.8931,0.1071,0.9017
43137,0.1677,0.2378,0.9263,0.0886,0.9130
43157,0.2996,-0.1130,0.9214,0.0962,0.9205
43177,0.0137,-0.3157,0.8826,0.1056,0.9115
43197,-0.1943,0.0479,0.8811,0.0931,0.8979
43217,-0.0044,0.3147,0.9033,0.1072,0.9011
43237,0.3176,0.0789,0.9539,0.0967,0.9229
43257,0.1719,-0.2966,0.9177,0.1120,0.9246
43277,-0.1389,-0.1699,0.8916,0.0867,0.9131
43297,-0.1448,0.2383,0.8987,0.1105,0.9060
43317,0.1895,0.2456,0.9285,0.0924,0.9176
43337,0.3052,-0.1365,0.9214,0.1021,0.9238
43357,-0.0022,-0.3198,0.8823,0.1088,0.9132
43377,-0.2114,0.0430,0.8823,0.0972,0.8996
43397,-0.0068,0.3115,0.9060,0.1071,0.9028
43417,0.3064,0.1011,0.9451,0.0949,0.9213
43437,0.1868,-0.2947,0.9209,0.1143,0.9244
43457,-0.1416,-0.2024,0.8899,0.0928,0.9132
43477,-0.1616,0.2288,0.8943,0.1124,0.9043
43497,0.1733,0.2576,0.9241,0.0949,0.9146
43517,0.3140,-0.1023,0.9250,0.0998,0.9229
43537,0.0298,-0.3369,0.8958,0.1128,0.9174
43557,-0.2070,-0.0200,0.8796,0.0924,0.9024
43577,-0.0564,0.3088,0.9016,0.1131,0.9020
43597,0.2827,0.1458,0.9377,0.0945,0.9180
43617,0.2363,-0.2495,0.9187,0.1095,0.9223
43637,-0.0952,-0.2666,0.8923,0.0989,0.9141
43657,-0.1926,0.1597,0.8889,0.1071,0.9022
43677,0.0974,0.3008,0.9111,0.1017,0.9081
43697,0.3293,0.0098,0.9434,0.0966,0.9247
43717,0.1228,-0.3149,0.9133,0.1117,0.9241
43737,-0.1641,-0.1353,0.8862,0.0874,0.9106
43757,-0.1299,0.2573,0.8987,0.1118,0.9047
43777,0.1951,0.2434,0.9253,0.0922,0.9160
43797,0.3066,-0.1343,0.9224,0.1028,0.9228
43817,0.0276,-0.3396,0.8833,0.1126,0.9140
43837,-0.2073,0.0034,0.8821,0.0950,0.9000
43857,-0.0583,0.3157,0.8940,0.1142,0.8985
43877,0.2810,0.1606,0.9409,0.0952,0.9171
43897,0.2551,-0.2371,0.9214,0.1109,0.9225
43917,-0.0762,-0.2788,0.8989,0.1011,0.9162
43937,-0.1870,0.1199,0.8752,0.0997,0.8994
43957,0.0293,0.3242,0.9099,0.1064,0.9056
43977,0.1497,0.2720,0.9248,0.0735,0.9203
43997,0.3289,-0.0757,0.9275,0.1060,0.9268
44017,0.0872,-0.3398,0.9089,0.1244,0.9219
44037,-0.1912,-0.0898,0.8792,0.0940,0.9053
44057,-0.1155,0.2739,0.8940,0.1095,0.9011
44077,0.2200,0.2222,0.9292,0.0904,0.9152
44097,0.2925,-0.1401,0.9270,0.1003,0.9232
44117,0.0110,-0.3284,0.8792,0.1115,0.9121
44137,-0.2085,-0.0208,0.8821,0.0920,0.8995
44157,-0.0620,0.3091,0.9009,0.1135,0.8998
44177,0.2617,0.1860,0.9370,0.0942,0.9167
44197,0.2693,-0.2139,0.9204,0.1096,0.9219
44217,-0.0269,-0.3064,0.8853,0.1028,0.9131
44237,-0.2104,0.0574,0.8806,0.0986,0.8988
44257,-0.0190,0.3271,0.9077,0.1126,0.9029
44277,0.3069,0.1377,0.9392,0.0983,0.9202
44297,0.2446,-0.2534,0.9255,0.1128,0.9259
44317,-0.0820,-0.2854,0.8992,0.1036,0.9187
44337,-0.2090,0.1016,0.8816,0.1026,0.9031
44357,0.0251,0.3303,0.9087,0.1109,0.9071
44377,0.3208,0.1069,0.9441,0.0984,0.9247
44397,0.2234,-0.2739,0.9277,0.1140,0.9295
44417,-0.0952,-0.2507,0.8901,0.0969,0.9177
44437,-0.1904,0.1489,0.8848,0.1055,0.9033
44457,0.0527,0.3127,0.9133,0.1016,0.9096
44477,0.3296,0.0737,0.9434,0.0973,0.9265
44497,0.1921,-0.2898,0.9260,0.1135,0.9297
44517,-0.1189,-0.2429,0.8899,0.0984,0.9176
44537,-0.1836,0.1624,0.8916,0.1057,0.9054
44557,0.0696,0.3223,0.9043,0.1053,0.9088
44577,0.3215,0.0562,0.9526,0.0950,0.9281
44597,0.1851,-0.3206,0.9224,0.1214,0.9300
44617,-0.1292,-0.2190,0.8906,0.0938,0.9177
44637,-0.1936,0.1794,0.8906,0.1106,0.9055
44657,0.0896,0.3167,0.9065,0.1046,0.9096
44677,0.3318,0.0386,0.9495,0.0981,0.9277
44697,0.1748,-0.3242,0.9175,0.1204,0.9283
44717,-0.1318,-0.2090,0.8862,0.0922,0.9151
44737,-0.1929,0.1914,0.8960,0.1128,0.9052
44757,0.0952,0.3035,0.9004,0.1004,0.9076
44777,0.3296,0.0488,0.9434,0.0965,0.9247
44797,0.1794,-0.3057,0.9275,0.1159,0.9290
44817,-0.1169,-0.2261,0.9006,0.0927,0.9202
44837,-0.1995,0.1763,0.8914,0.1120,0.9073
44857,0.0703,0.3220,0.9126,0.1046,0.9127
44877,0.3408,0.0530,0.9460,0.1015,0.9292
44897,0.2029,-0.3069,0.9268,0.1186,0.9326
44917,-0.1204,-0.2400,0.8833,0.0984,0.9176
44937,-0.2061,0.1575,0.8838,0.1109,0.9029
44957,0.0479,0.3147,0.9119,0.1031,0.9087
44977,0.3271,0.0779,0.9482,0.0990,0.9267
44997,0.2104,-0.2815,0.9312,0.1133,0.9319
45017,-0.1028,-0.2769,0.8977,0.1026,0.9226
45037,-0.1897,0.1218,0.8828,0.1017,0.9060
45057,0.0029,0.3237,0.9109,0.1080,0.9098
45077,0.2974,0.1267,0.9502,0.0942,0.9278
45097,0.2419,-0.2673,0.9209,0.1169,0.9296
45117,-0.0688,-0.2964,0.8979,0.1029,0.9219
45137,-0.2136,0.0930,0.8821,0.1039,0.9052
45157,-0.0244,0.3430,0.9038,0.1159,0.9071
45177,0.3003,0.1333,0.9441,0.0978,0.9238
45197,0.2625,-0.2424,0.9211,0.1143,0.9272
45217,-0.0474,-0.3018,0.8914,0.1034,0.9183
45237,-0.1143,-0.2378,0.8955,0.0719,0.9163
45257,-0.1929,0.1570,0.8882,0.1097,0.9027
45277,0.0430,0.3408,0.9060,0.1202,0.9046
45297,0.3210,0.0852,0.9551,0.1029,0.9246
45317,0.2234,-0.2896,0.9309,0.1164,0.9311
45337,-0.0898,-0.2722,0.8899,0.0964,0.9205
45357,-0.2124,0.1025,0.8823,0.1038,0.9046
45377,-0.0100,0.3291,0.9072,0.1120,0.9072
45397,0.2966,0.1450,0.9429,0.0978,0.9237
45417,0.2649,-0.2390,0.9246,0.1140,0.9282
45437,-0.0396,-0.3230,0.8870,0.1082,0.9184
45457,-0.2161,0.0435,0.8872,0.0996,0.9045
45477,-0.0588,0.3359,0.8975,0.1194,0.9033
45497,0.2659,0.2134,0.9402,0.0989,0.9211
45517,0.2998,-0.1748,0.9241,0.1101,0.9262
45537,0.0239,-0.3608,0.8953,0.1196,0.9202
45557,-0.2024,-0.0566,0.8843,0.0921,0.9060
45577,-0.1223,0.2930,0.8884,0.1194,0.8991
45597,0.1931,0.2590,0.9272,0.0962,0.9130
45617,0.3359,-0.0801,0.9312,0.1047,0.9240
45637,0.0986,-0.3521,0.9114,0.1195,0.9239
45657,-0.1660,-0.1663,0.8911,0.0899,0.9129
45677,-0.1711,0.2288,0.8884,0.1167,0.9016
45697,0.1235,0.3081,0.9121,0.1038,0.9092
45717,0.3347,0.0303,0.9407,0.0975,0.9251
45737,0.1895,-0.3203,0.9277,0.1202,0.9301
45757,-0.1116,-0.2510,0.8967,0.0967,0.9207
45777,-0.2090,0.1460,0.8806,0.1115,0.9036
45797,0.0217,0.3337,0.9021,0.1102,0.9060
45817,0.3145,0.1321,0.9421,0.0986,0.9237
45837,0.2583,-0.2502,0.9263,0.1152,0.9287
45857,-0.0479,-0.3184,0.8860,0.1090,0.9179
45877,-0.2139,0.0312,0.8821,0.0981,0.9026
45897,-0.0642,0.3215,0.8955,0.1164,0.9009
45917,0.2354,0.2249,0.9348,0.0937,0.9174
45937,0.3145,-0.1370,0.9187,0.1065,0.9226
45957,0.0598,-0.3699,0.9038,0.1226,0.9208
45977,-0.1941,-0.0959,0.8774,0.0920,0.9049
45997,-0.1438,0.2651,0.8906,0.1175,0.8979
46017,0.1504,0.2954,0.9287,0.1002,0.9125
46037,0.3325,0.0002,0.9407,0.0977,0.9269
46057,0.1599,-0.3396,0.9243,0.1236,0.9297
46077,-0.1248,-0.2332,0.8906,0.0939,0.9184
46097,-0.2048,0.1582,0.8845,0.1113,0.9035
46117,0.0215,0.3394,0.9121,0.1109,0.9094
46137,0.3115,0.1392,0.9492,0.0989,0.9280
46157,0.2747,-0.2446,0.9194,0.1177,0.9299
46177,-0.0417,-0.3276,0.8879,0.1122,0.9193
46197,-0.2173,-0.0012,0.8779,0.0966,0.9029
46217,-0.0901,0.3149,0.8862,0.1187,0.8976
46237,0.2151,0.2451,0.9272,0.0954,0.9124
46257,0.3308,-0.1079,0.9207,0.1073,0.9201
46277,0.0894,-0.3696,0.9133,0.1238,0.9222
46297,-0.1658,-0.1824,0.8860,0.0905,0.9110
46317,-0.1899,0.2217,0.8882,0.1205,0.8996
46337,0.0789,0.3184,0.9043,0.1048,0.9047
46357,0.3376,0.0667,0.9487,0.1026,0.9241
46377,0.3420,-0.0098,0.9441,0.0777,0.9414
46397,0.1697,-0.3245,0.9221,0.1135,0.9411
46417,-0.1147,-0.2515,0.8936,0.1039,0.9258
46437,-0.2166,0.1372,0.8796,0.1191,0.9049
46457,-0.0034,0.3418,0.9116,0.1148,0.9092
46477,0.2952,0.1648,0.9399,0.0944,0.9259
46497,0.2812,-0.2104,0.9211,0.1104,0.9291
46517,0.0212,-0.3621,0.8801,0.1174,0.9186
46537,-0.2119,-0.0740,0.8936,0.0963,0.9076
46557,-0.1406,0.2878,0.8940,0.1235,0.9009
46577,0.1555,0.2854,0.9255,0.0981,0.9134
46597,0.3450,-0.0098,0.9495,0.1029,0.9304
46617,0.1763,-0.3247,0.9175,0.1187,0.9308
46637,-0.1055,-0.2688,0.8960,0.0980,0.9219
46657,-0.2136,0.0984,0.8757,0.1058,0.9031
46677,-0.0417,0.3440,0.9033,0.1189,0.9048
46697,0.2810,0.2007,0.9373,0.1010,0.9212
46717,0.3157,-0.1641,0.9285,0.1107,0.9284
46737,0.0525,-0.3638,0.9021,0.1199,0.9244
46757,-0.1851,-0.1460,0.8862,0.0917,0.9115
46777,-0.1638,0.2339,0.8894,0.1171,0.9008
46797,0.0937,0.3291,0.9006,0.1071,0.9053
46817,0.3381,0.0701,0.9482,0.1010,0.9249
46837,0.2424,-0.2771,0.9246,0.1169,0.9295
46857,-0.0525,-0.3225,0.8965,0.1084,0.9223
46877,-0.2261,0.0156,0.8777,0.1019,0.9043
46897,-0.1099,0.3188,0.8975,0.1217,0.9020
46917,0.2070,0.2612,0.9268,0.0985,0.9153
46937,0.3577,-0.0703,0.9358,0.1109,0.9275
46957,0.1389,-0.3545,0.9209,0.1230,0.9300
46977,-0.1458,-0.2173,0.8916,0.0956,0.9182
46997,-0.2104,0.1545,0.8870,0.1122,0.9040
47017,-0.0034,0.3462,0.9026,0.1138,0.9068
47037,0.2864,0.1760,0.9485,0.0974,0.9259
47057,0.2976,-0.1943,0.9219,0.1137,0.9289
47077,0.0474,-0.3613,0.9009,0.1173,0.9247
47097,-0.1965,-0.1309,0.8796,0.0936,0.9094
47117,-0.1782,0.2568,0.8818,0.1241,0.8975
47137,0.1062,0.3293,0.9006,0.1073,0.9035
47157,0.3447,0.0815,0.9482,0.1035,0.9240
47177,0.2380,-0.2703,0.9324,0.1166,0.9304
47197,-0.0342,-0.3298,0.8831,0.1094,0.9192
47217,-0.2214,-0.0266,0.8831,0.0974,0.9045
47237,-0.1309,0.2991,0.8970,0.1213,0.9009
47257,0.1621,0.2949,0.9180,0.1001,0.9119
47277,0.3450,0.0142,0.9414,0.1022,0.9270
47297,0.2083,-0.3193,0.9280,0.1233,0.9317
47317,-0.0820,-0.3000,0.8945,0.1040,0.9228
47337,-0.2300,0.0488,0.8767,0.1052,0.9041
47357,-0.0920,0.3235,0.8926,0.1196,0.9010
47377,0.2131,0.2729,0.9236,0.1011,0.9145
47397,0.3552,-0.0488,0.9302,0.1078,0.9254
47417,0.1616,-0.3501,0.9187,0.1255,0.9277
47437,-0.1108,-0.2734,0.8860,0.0999,0.9169
47457,-0.2183,0.1001,0.8755,0.1087,0.8990
47477,-0.0664,0.3396,0.8906,0.1195,0.8980
47497,0.2275,0.2427,0.9302,0.0957,0.9142
47517,0.3457,-0.0918,0.9321,0.1101,0.9251
47537,0.3347,-0.1384,0.9263,0.0833,0.9379
47557,0.0903,-0.3760,0.9167,0.1160,0.9388
47577,-0.1599,-0.2063,0.8877,0.1012,0.9219
47597,-0.2087,0.1731,0.8865,0.1258,0.9032
47617,-0.0125,0.3501,0.9043,0.1194,0.9055
47637,0.2783,0.2000,0.9373,0.0966,0.9225
47657,0.3123,-0.1489,0.9175,0.1058,0.9263
47677,0.0979,-0.3767,0.9094,0.1235,0.9266
47697,-0.1567,-0.1973,0.8889,0.0923,0.9150
47717,-0.2065,0.1689,0.8916,0.1155,0.9027
47737,-0.0168,0.3579,0.9053,0.1180,0.9068
47757,0.2795,0.1970,0.9382,0.0986,0.9231
47777,0.3215,-0.1428,0.9194,0.1095,0.9269
47797,0.0972,-0.3792,0.9170,0.1262,0.9287
47817,-0.1597,-0.2119,0.8945,0.0945,0.9187
47837,-0.2085,0.1619,0.8838,0.1143,0.9031
47857,-0.0239,0.3484,0.8987,0.1160,0.9046
47877,0.2681,0.2183,0.9385,0.0996,0.9218
47897,0.3340,-0.1123,0.9175,0.1079,0.9260
47917,0.1306,-0.3706,0.9133,0.1263,0.9271
47937,-0.1416,-0.2397,0.8901,0.0975,0.9168
47957,-0.2278,0.1387,0.8735,0.1163,0.8983
47977,-0.0625,0.3528,0.8931,0.1200,0.8995
47997,0.2520,0.2456,0.9326,0.1022,0.9165
48017,0.3450,-0.0881,0.9285,0.1100,0.9254
48037,0.1489,-0.3518,0.9221,0.1240,0.9287
48057,-0.1138,-0.2744,0.8933,0.0995,0.9201
48077,-0.2153,0.0649,0.8545,0.1029,0.8956
48097,-0.1021,0.3291,0.9065,0.1220,0.8994
48117,0.1987,0.2717,0.9165,0.0988,0.9107
48137,0.3538,-0.0322,0.9580,0.1086,0.9307
48157,0.2056,-0.3386,0.9167,0.1255,0.9321
48177,-0.0845,-0.3127,0.8997,0.1055,0.9255
48197,-0.2366,0.0273,0.8774,0.1064,0.9061
48217,-0.1240,0.3083,0.8938,0.1217,0.9017
48237,0.1614,0.3149,0.9351,0.1054,0.9182
48257,0.3359,0.0500,0.9502,0.0992,0.9341
48277,0.2480,-0.2869,0.9204,0.1226,0.9344
48297,-0.0112,-0.3687,0.8818,0.1169,0.9238
48317,-0.2134,-0.0815,0.8855,0.0961,0.9092
48337,-0.1768,0.2578,0.8882,0.1237,0.8994
48357,0.0725,0.3442,0.9026,0.1093,0.9055
48377,0.3279,0.1411,0.9468,0.1034,0.9253
48397,0.2976,-0.2073,0.9272,0.1149,0.9305
48417,0.0640,-0.3711,0.9006,0.1199,0.9265
48437,-0.1650,-0.2039,0.8926,0.0930,0.9167
48457,-0.2139,0.1604,0.8857,0.1157,0.9021
48477,-0.0383,0.3640,0.9036,0.1221,0.9056
48497,0.2471,0.2441,0.9302,0.0991,0.9203
48517,0.3542,-0.0837,0.9282,0.1120,0.9283
48537,0.1772,-0.3623,0.9243,0.1287,0.9326
48557,-0.0981,-0.2942,0.8921,0.1022,0.9231
48577,-0.2356,0.0354,0.8782,0.1067,0.9046
48597,-0.1260,0.3135,0.8911,0.1231,0.8999
48617,0.1506,0.3213,0.9204,0.1047,0.9128
48637,0.3450,0.0549,0.9546,0.1035,0.9318
48657,0.2676,-0.2810,0.9299,0.1242,0.9362
48677,0.0085,-0.3687,0.8779,0.1165,0.9240
48697,-0.2087,-0.1252,0.8799,0.0969,0.9087
48717,-0.1958,0.2271,0.8916,0.1224,0.8992
48737,-0.1719,0.2434,0.8892,0.0866,0.9013
48757,0.0500,0.3682,0.9102,0.1007,0.9137
48777,0.3037,0.1741,0.9519,0.1057,0.9311
48797,0.3159,-0.1716,0.9246,0.1256,0.9302
48817,0.1006,-0.3894,0.9116,0.1353,0.9278
48837,-0.1438,-0.2449,0.8896,0.0960,0.9180
48857,-0.2222,0.1079,0.8774,0.1069,0.9014
48877,-0.0862,0.3379,0.8975,0.1191,0.9021
48897,0.1924,0.2864,0.9282,0.0995,0.9169
48917,0.3533,0.0010,0.9504,0.1073,0.9328
48937,0.2429,-0.3137,0.9277,0.1268,0.9365
48957,-0.0305,-0.3462,0.8823,0.1110,0.9246
48977,-0.2251,-0.0740,0.8811,0.0996,0.9083
48997,-0.1777,0.2556,0.8872,0.1224,0.8988
49017,0.0701,0.3557,0.9043,0.1128,0.9058
49037,0.3032,0.1753,0.9514,0.0988,0.9273
49057,0.3335,-0.1702,0.9224,0.1171,0.9313
49077,0.1018,-0.3911,0.9126,0.1298,0.9309
49097,-0.1399,-0.2451,0.8975,0.0961,0.9223
49117,-0.2344,0.1013,0.8689,0.1134,0.9008
49137,-0.0981,0.3308,0.8997,0.1206,0.9015
49157,0.1836,0.2903,0.9297,0.1005,0.9165
49177,0.3494,0.0242,0.9539,0.1044,0.9340
49197,0.2490,-0.2937,0.9253,0.1229,0.9363
49217,-0.0061,-0.3684,0.8862,0.1154,0.9268
49237,-0.2151,-0.1106,0.8845,0.0975,0.9118
49257,-0.1946,0.2358,0.8848,0.1238,0.8995
49277,0.0374,0.3621,0.9087,0.1160,0.9069
49297,0.2922,0.2085,0.9380,0.1011,0.9244
49317,0.3450,-0.1226,0.9260,0.1122,0.9307
49337,0.1436,-0.3909,0.9224,0.1339,0.9337
49357,-0.1172,-0.2917,0.8945,0.1028,0.9248
49377,-0.2358,0.0476,0.8784,0.1085,0.9056
49397,-0.1248,0.3196,0.8931,0.1254,0.9011
49417,0.1340,0.3345,0.9180,0.1058,0.9132
49437,0.3311,0.0916,0.9558,0.1000,0.9327
49457,0.2969,-0.2607,0.9226,0.1271,0.9346
49477,0.0474,-0.3887,0.9048,0.1222,0.9317
49497,-0.1851,-0.1719,0.8916,0.0953,0.9188
49517,-0.2202,0.1841,0.8889,0.1216,0.9045
49537,-0.0398,0.3621,0.8997,0.1198,0.9066
49557,0.2363,0.2563,0.9338,0.0989,0.9223
49577,0.3657,-0.0422,0.9392,0.1111,0.9337
49597,0.2070,-0.3286,0.9302,0.1248,0.9374
49617,-0.0439,-0.3374,0.8855,0.1083,0.9261
49637,-0.2346,-0.0667,0.8779,0.1022,0.9084
49657,-0.1741,0.2617,0.8911,0.1233,0.9000
49677,0.0547,0.3618,0.9033,0.1131,0.9067
49697,0.2896,0.1833,0.9468,0.0968,0.9262
49717,0.3447,-0.1404,0.9229,0.1155,0.9308
49737,0.1406,-0.3899,0.9255,0.1320,0.9351
49757,-0.1160,-0.2979,0.8928,0.1030,0.9258
49777,-0.2393,0.0383,0.8738,0.1088,0.9050
49797,-0.1289,0.3047,0.8923,0.1230,0.8998
49817,0.1184,0.3391,0.9072,0.1069,0.9087
49837,0.3267,0.1299,0.9470,0.0998,0.9278
49857,0.3125,-0.2080,0.9214,0.1188,0.9309
49877,0.0935,-0.3916,0.9063,0.1264,0.9297
49897,-0.1460,-0.2405,0.8887,0.0960,0.9188
49917,-0.2354,0.1045,0.8728,0.1147,0.8993
49937,-0.1096,0.3367,0.8970,0.1237,0.8996
49957,0.1719,0.3198,0.9253,0.1055,0.9149
49977,0.3538,0.0793,0.9568,0.1047,0.9351
49997,0.3457,0.0784,0.9521,0.0708,0.9539
50017,0.2847,-0.2595,0.9302,0.1135,0.9545
50037,0.0640,-0.3953,0.8979,0.1261,0.9437
50057,-0.1716,-0.2114,0.8877,0.1062,0.9251
50077,-0.2229,0.1289,0.8704,0.1210,0.9011
50097,-0.0906,0.3643,0.8867,0.1306,0.8982
50117,0.1750,0.3101,0.9307,0.0989,0.9164
50137,0.3555,0.0737,0.9580,0.1026,0.9371
50157,0.2935,-0.2502,0.9231,0.1218,0.9383
50177,0.0542,-0.3867,0.9041,0.1238,0.9335
50197,-0.1570,-0.2244,0.8918,0.0952,0.9219
50217,-0.2327,0.1123,0.8708,0.1151,0.9009
50237,-0.1086,0.3401,0.8843,0.1243,0.8971
50257,0.1501,0.3303,0.9233,0.1038,0.9130
50277,0.3386,0.1013,0.9553,0.1019,0.9330
50297,0.3232,-0.2051,0.9260,0.1191,0.9367
50317,0.1074,-0.3967,0.9104,0.1286,0.9354
50337,-0.1328,-0.2866,0.8916,0.1023,0.9255
50357,-0.2380,0.0356,0.8687,0.1086,0.9032
50377,-0.1519,0.3069,0.8862,0.1275,0.8966
50397,0.0786,0.3516,0.8967,0.1073,0.9033
50417,0.3062,0.1851,0.9463,0.1010,0.9244
50437,0.3567,-0.1265,0.9302,0.1161,0.9323
50457,0.1921,-0.3623,0.9146,0.1272,0.9338
50477,-0.0654,-0.3486,0.8972,0.1105,0.9280
50497,-0.2361,-0.0911,0.8818,0.1027,0.9114
50517,-0.2087,0.2324,0.8879,0.1262,0.9001
50537,-0.0229,0.3713,0.9026,0.1190,0.9055
50557,0.2217,0.2754,0.9221,0.0984,0.9187
50577,0.3582,0.0237,0.9451,0.1059,0.9334
50597,0.2771,-0.2864,0.9255,0.1274,0.9363
50617,0.0505,-0.4028,0.8953,0.1243,0.9314
50637,-0.1628,-0.2346,0.8916,0.0957,0.9213
50657,-0.2368,0.0903,0.8699,0.1138,0.9001
50677,-0.1328,0.3328,0.8926,0.1282,0.8980
50697,0.1094,0.3560,0.9011,0.1083,0.9068
50717,0.3201,0.1829,0.9470,0.1023,0.9279
50737,0.3513,-0.1238,0.9248,0.1143,0.9330
50757,0.2026,-0.3564,0.9319,0.1278,0.9392
50777,-0.0503,-0.3599,0.8860,0.1134,0.9287
50797,-0.2271,-0.1555,0.8826,0.1011,0.9145
50817,-0.2285,0.1782,0.8877,0.1218,0.9014
50837,-0.0835,0.3740,0.8960,0.1281,0.9029
50857,0.1609,0.3240,0.9231,0.1019,0.9173
50877,0.3540,0.1174,0.9478,0.1075,0.9345
50897,0.3398,-0.1729,0.9272,0.1172,0.9385
50917,0.1626,-0.3872,0.9260,0.1301,0.9419
50937,-0.0559,-0.3528,0.8933,0.1062,0.9340
50957,-0.2166,-0.1326,0.8845,0.0970,0.9180
50977,-0.2380,0.1858,0.8809,0.1262,0.9016
50997,-0.1040,0.3774,0.8865,0.1296,0.9009
51017,0.1355,0.3354,0.9148,0.1008,0.9136
51037,0.3264,0.1736,0.9509,0.1033,0.9337
51057,0.3665,-0.1086,0.9192,0.1160,0.9360
51077,0.2429,-0.3472,0.9360,0.1299,0.9437
51097,0.0151,-0.4067,0.8831,0.1206,0.9344
51117,-0.1902,-0.2507,0.8862,0.1032,0.9229
51137,-0.2417,0.0515,0.8713,0.1108,0.9020
51157,-0.1721,0.3142,0.8857,0.1340,0.8953
51177,-0.0120,0.4106,0.9053,0.1207,0.9075
51197,0.2312,0.2876,0.9312,0.0998,0.9242
51217,0.1626,0.3337,0.9231,0.0619,0.9413
51237,0.3472,0.1584,0.9531,0.0873,0.9585
51257,0.3809,-0.1108,0.9207,0.1173,0.9552
51277,0.2644,-0.3337,0.9343,0.1340,0.9555
51297,0.0435,-0.4258,0.8960,0.1340,0.9450
51317,-0.1448,-0.3057,0.8894,0.1083,0.9324
51337,-0.2612,-0.0583,0.8818,0.1103,0.9138
51357,-0.2351,0.2183,0.8857,0.1282,0.9013
51377,-0.1162,0.3770,0.8921,0.1257,0.9040
51397,0.0793,0.3867,0.8987,0.1047,0.9141
51417,0.2791,0.2686,0.9441,0.1016,0.9344
51437,0.4009,0.0491,0.9658,0.1151,0.9534
51457,0.3608,-0.2078,0.9397,0.1253,0.9574
51477,0.2058,-0.3889,0.9314,0.1310,0.9591
51497,0.0198,-0.4448,0.8921,0.1238,0.9521
51517,-0.1577,-0.3523,0.8933,0.1061,0.9446
51537,-0.2683,-0.0764,0.8782,0.1111,0.9223
51557,-0.2527,0.2073,0.8745,0.1361,0.9020
51577,-0.1685,0.3665,0.8887,0.1329,0.9023
51597,-0.0002,0.4331,0.9065,0.1178,0.9167
51617,0.1958,0.3132,0.9199,0.0947,0.9285
51637,0.3777,0.1621,0.9612,0.1160,0.9486
51657,0.4231,-0.0564,0.9275,0.1206,0.9533
51677,0.3252,-0.2693,0.9390,0.1229,0.9586
51697,0.1538,-0.4575,0.9106,0.1412,0.9567
51717,-0.0317,-0.4548,0.8821,0.1221,0.9496
51737,-0.1892,-0.3083,0.8789,0.1023,0.9369
51757,-0.2571,-0.0471,0.8770,0.1093,0.9153
51777,-0.2510,0.2092,0.8733,0.1350,0.8971
51797,-0.1804,0.3850,0.8801,0.1386,0.8973
51817,-0.0481,0.4241,0.9045,0.1105,0.9139
51837,0.1665,0.3604,0.9106,0.0993,0.9261
51857,0.3430,0.2439,0.9556,0.1116,0.9479
51877,0.4270,0.0215,0.9602,0.1212,0.9623
51897,0.3879,-0.1755,0.9299,0.1197,0.9636
51917,0.2510,-0.3699,0.9343,0.1309,0.9653
51937,0.0793,-0.4846,0.9082,0.1361,0.9638
51957,-0.0935,-0.4250,0.9053,0.1124,0.9610
51977,-0.2114,-0.2561,0.8774,0.0974,0.9425
51997,-0.2612,0.0015,0.8816,0.1140,0.9193
52017,-0.2446,0.2417,0.8853,0.1375,0.9045
52037,-0.2004,0.3975,0.8860,0.1376,0.9074
52057,-0.0745,0.4177,0.9011,0.1032,0.9215
52077,0.1360,0.3667,0.9148,0.0958,0.9327
52097,0.3115,0.2791,0.9541,0.1091,0.9522
52117,0.4187,0.1274,0.9695,0.1144,0.9714
52137,0.4316,-0.0996,0.9231,0.1227,0.9695
52157,0.3435,-0.2927,0.9382,0.1270,0.9724
52177,0.1885,-0.4595,0.9199,0.1391,0.9719
52197,0.0107,-0.4949,0.8845,0.1289,0.9647
52217,-0.1438,-0.4158,0.8943,0.1092,0.9600
52237,-0.2341,-0.2341,0.8689,0.0974,0.9394
52257,-0.2810,0.0269,0.8767,0.1220,0.9151
52277,-0.2551,0.2515,0.8757,0.1403,0.8994
52297,-0.1980,0.3850,0.8811,0.1332,0.9022
52317,-0.1167,0.4409,0.9026,0.1101,0.9210
52337,0.0847,0.3958,0.8914,0.0936,0.9278
52357,0.2898,0.2957,0.9478,0.1122,0.9456
52377,0.4075,0.1841,0.9739,0.1165,0.9689
52397,0.4541,0.0032,0.9287,0.1166,0.9726
52417,0.4053,-0.2058,0.9358,0.1230,0.9755
52437,0.4590,-0.0142,0.9453,0.0556,0.9951
52457,0.3894,-0.1890,0.9380,0.0689,1.0011
52477,0.2830,-0.3789,0.9443,0.1062,1.0049
52497,0.1206,-0.4929,0.9153,0.1247,0.9996
52517,-0.0461,-0.4844,0.8906,0.1197,0.9874
52537,-0.1836,-0.3948,0.8906,0.1104,0.9741
52557,-0.2424,-0.2002,0.8765,0.1023,0.9486
52577,-0.2617,0.0420,0.8799,0.1242,0.9205
52597,-0.2546,0.2651,0.8787,0.1462,0.9030
52617,-0.2229,0.4028,0.8894,0.1401,0.9088
52637,-0.1396,0.4370,0.9006,0.1073,0.9261
52657,0.0410,0.4084,0.8865,0.0895,0.9317
52677,0.2031,0.3672,0.9268,0.0974,0.9465
52697,0.3640,0.2561,0.9675,0.1139,0.9681
52717,0.4292,0.1011,0.9697,0.1122,0.9834
52737,0.4531,-0.0735,0.9214,0.1173,0.9812
52757,0.4026,-0.2397,0.9426,0.1188,0.9866
52777,0.2764,-0.3940,0.9365,0.1256,0.9885
52797,0.1111,-0.4963,0.9114,0.1317,0.9851
52817,-0.0107,-0.5139,0.8958,0.1173,0.9834
52837,-0.1670,-0.4453,0.8943,0.1090,0.9783
52857,-0.2324,-0.3020,0.8716,0.0920,0.9600
52877,-0.2549,-0.0645,0.8813,0.1072,0.9339
52897,-0.2661,0.1499,0.8777,0.1320,0.9104
52917,-0.2693,0.2974,0.8848,0.1344,0.9062
52937,-0.2065,0.4370,0.8906,0.1324,0.9176
52957,-0.1431,0.4573,0.9033,0.0997,0.9380
52977,0.0244,0.4385,0.8789,0.0874,0.9422
52997,0.1772,0.3486,0.9275,0.0903,0.9520
53017,0.3411,0.2883,0.9607,0.1122,0.9704
53037,0.4268,0.1826,0.9636,0.1100,0.9870
53057,0.4727,0.0188,0.9373,0.1136,0.9912
53077,0.4602,-0.1338,0.9353,0.1129,0.9947
53097,0.3550,-0.3101,0.9502,0.1217,0.9978
53117,0.2295,-0.4368,0.9302,0.1271,0.9959
53137,0.0996,-0.5093,0.9036,0.1245,0.9919
53157,-0.0571,-0.5413,0.8962,0.1242,0.9912
53177,-0.1675,-0.4548,0.8945,0.1021,0.9869
53197,-0.2388,-0.3059,0.8689,0.0920,0.9663
53217,-0.2583,-0.0908,0.8792,0.1046,0.9394
53237,-0.2500,0.1145,0.8652,0.1258,0.9100
53257,-0.2537,0.3118,0.8774,0.1449,0.9001
53277,-0.2461,0.4316,0.8760,0.1364,0.9099
53297,-0.1636,0.4668,0.9006,0.1056,0.9329
53317,-0.0435,0.4539,0.8887,0.0819,0.9449
53337,0.1089,0.4087,0.9026,0.0839,0.9522
53357,0.2683,0.3293,0.9421,0.1022,0.9647
53377,0.3901,0.2437,0.9685,0.1117,0.9835
53397,0.4609,0.1184,0.9656,0.1117,0.9978
53417,0.4924,-0.0469,0.9219,0.1171,0.9966
53437,0.4287,-0.2107,0.9443,0.1162,0.9999
53457,0.3298,-0.3579,0.9385,0.1219,1.0002
53477,0.1948,-0.4790,0.9224,0.1295,0.9983
53497,0.0581,-0.5317,0.8979,0.1244,0.9946
53517,-0.1030,-0.5269,0.8982,0.1208,0.9934
53537,-0.2036,-0.4441,0.8853,0.1024,0.9864
53557,0.0178,-0.5425,0.8828,0.0467,0.9991
53577,-0.1284,-0.5000,0.8962,0.0500,1.0069
53597,-0.2166,-0.4016,0.8713,0.0613,0.9956
53617,-0.2563,-0.2341,0.8779,0.0812,0.9725
53637,-0.2634,0.0005,0.8726,0.1200,0.9369
53657,-0.2720,0.1785,0.8782,0.1361,0.9134
53677,-0.2659,0.3376,0.8794,0.1420,0.9080
53697,-0.2148,0.4529,0.8923,0.1331,0.9219
53717,-0.1650,0.4795,0.9041,0.1026,0.9449
53737,-0.0403,0.4509,0.8735,0.0792,0.9491
53757,0.1169,0.3979,0.9028,0.0861,0.9536
53777,0.2676,0.3257,0.9492,0.1037,0.9670
53797,0.3906,0.2461,0.9736,0.1131,0.9864
53817,0.4565,0.1145,0.9546,0.1118,0.9959
53837,0.4929,-0.0312,0.9207,0.1145,0.9955
53857,0.4548,-0.1836,0.9478,0.1131,1.0028
53877,0.3569,-0.3340,0.9490,0.1183,1.0065
53897,0.2261,-0.4617,0.9250,0.1272,1.0037
53917,0.0850,-0.5381,0.9063,0.1284,1.0011
53937,-0.0542,-0.5491,0.8926,0.1202,0.9991
53957,-0.1763,-0.4868,0.9048,0.1063,0.9992
53977,-0.2407,-0.3740,0.8726,0.0904,0.9836
53997,-0.2593,-0.1619,0.8799,0.0975,0.9567
54017,-0.2585,0.0769,0.8799,0.1294,0.9251
54037,-0.2825,0.2385,0.8811,0.1387,0.9100
54057,-0.2498,0.3799,0.8816,0.1365,0.9118
54077,-0.2109,0.4724,0.8806,0.1225,0.9273
54097,-0.1511,0.4858,0.8979,0.0915,0.9497
54117,0.0229,0.4626,0.8801,0.0851,0.9546
54137,0.1743,0.3706,0.9197,0.0916,0.9604
54157,0.3062,0.3162,0.9634,0.1051,0.9780
54177,0.3960,0.2085,0.9719,0.1073,0.9930
54197,0.4717,0.0708,0.9436,0.1144,0.9975
54217,0.4995,-0.0730,0.9243,0.1163,0.9989
54237,0.4246,-0.2356,0.9473,0.1159,1.0035
54257,0.3279,-0.3804,0.9385,0.1224,1.0049
54277,0.1750,-0.5039,0.9187,0.1333,1.0020
54297,0.0508,-0.5334,0.8936,0.1206,0.9973
54317,-0.1003,-0.5259,0.9026,0.1163,0.9975
54337,-0.2073,-0.4727,0.8884,0.1044,0.9939
54357,-0.2310,-0.3003,0.8755,0.0838,0.9737
54377,-0.2808,-0.1013,0.8845,0.1070,0.9478
54397,-0.2759,0.1277,0.8643,0.1346,0.9156
54417,-0.2605,0.2979,0.8755,0.1421,0.9037
54437,-0.2195,0.4390,0.8838,0.1400,0.9124
54457,-0.1890,0.5034,0.9006,0.1174,0.9385
54477,-0.0820,0.4761,0.8831,0.0817,0.9513
54497,0.0789,0.4465,0.8926,0.0844,0.9579
54517,0.2332,0.3718,0.9353,0.0985,0.9695
54537,0.3552,0.2844,0.9685,0.1085,0.9869
54557,0.4475,0.1731,0.9617,0.1124,0.9994
54577,0.4922,0.0176,0.9407,0.1163,1.0029
54597,0.4763,-0.1250,0.9468,0.1128,1.0080
54617,0.4136,-0.2866,0.9419,0.1193,1.0100
54637,0.2646,-0.4453,0.9312,0.1338,1.0064
54657,0.1270,-0.5098,0.9177,0.1273,1.0033
54677,-0.0095,-0.5503,0.8955,0.1240,1.0001
54697,0.2478,-0.4680,0.9258,0.0418,1.0185
54717,0.0847,-0.5222,0.9065,0.0565,1.0243
54737,-0.0388,-0.5430,0.8943,0.0727,1.0251
54757,-0.1636,-0.5320,0.9038,0.0843,1.0281
54777,-0.2319,-0.3906,0.8757,0.0826,1.0080
54797,-0.2654,-0.1882,0.8862,0.1024,0.9768
54817,-0.2637,0.0317,0.8718,0.1298,0.9369
54837,-0.2725,0.2126,0.8730,0.1436,0.9115
54857,-0.2629,0.3718,0.8762,0.1469,0.9076
54877,-0.2183,0.4663,0.8965,0.1302,0.9261
54897,-0.1692,0.5002,0.8992,0.1023,0.9499
54917,-0.0320,0.4700,0.8718,0.0803,0.9545
54937,0.1194,0.4277,0.9058,0.0869,0.9620
54957,0.2717,0.3315,0.9509,0.1043,0.9741
54977,0.3782,0.2522,0.9636,0.1089,0.9885
54997,0.4575,0.1187,0.9448,0.1139,0.9943
55017,0.5127,-0.0242,0.9187,0.1196,0.9954
55037,0.4600,-0.1584,0.9482,0.1089,1.0033
55057,0.3862,-0.3433,0.9409,0.1256,1.0067
55077,0.2651,-0.4561,0.9216,0.1255,1.0055
55097,0.0874,-0.5125,0.9109,0.1267,1.0001
55117,-0.0457,-0.5391,0.8933,0.1221,0.9963
55137,-0.1663,-0.5178,0.9009,0.1123,0.9988
55157,-0.2410,-0.3982,0.8762,0.0936,0.9865
55177,-0.2698,-0.1938,0.8728,0.0969,0.9597
55197,-0.2668,0.0105,0.8677,0.1168,0.9274
55217,-0.2708,0.2114,0.8757,0.1387,0.9070
55237,-0.2668,0.3621,0.8721,0.1410,0.9046
55257,-0.2068,0.4875,0.8774,0.1348,0.9195
55277,-0.1707,0.4907,0.9014,0.0962,0.9460
55297,-0.0532,0.4617,0.8752,0.0724,0.9533
55317,0.0974,0.4175,0.9075,0.0806,0.9608
55337,0.2590,0.3511,0.9446,0.1026,0.9729
55357,0.3589,0.2661,0.9680,0.1058,0.9886
55377,0.4546,0.1426,0.9624,0.1142,0.9998
55397,0.4963,-0.0034,0.9346,0.1164,1.0021
55417,0.4690,-0.1487,0.9583,0.1129,1.0106
55437,0.4062,-0.2825,0.9495,0.1122,1.0146
55457,0.3035,-0.4260,0.9355,0.1225,1.0150
55477,0.1624,-0.5168,0.9136,0.1255,1.0114
55497,0.0073,-0.5369,0.8860,0.1212,1.0019
55517,-0.1240,-0.5535,0.8982,0.1185,1.0042
55537,-0.2039,-0.4683,0.8914,0.0958,1.0005
55557,-0.2534,-0.3179,0.8716,0.0870,0.9801
55577,-0.2734,-0.0952,0.8870,0.1086,0.9518
55597,-0.2737,0.0935,0.8591,0.1271,0.9182
55617,-0.2808,0.2632,0.8726,0.1381,0.9047
55637,-0.2412,0.4109,0.8821,0.1386,0.9108
55657,-0.1995,0.5039,0.8882,0.1248,0.9323
55677,-0.1646,0.4995,0.8904,0.0871,0.9548
55697,-0.0188,0.4802,0.8755,0.0763,0.9611
55717,0.1082,0.4314,0.9082,0.0794,0.9689
55737,0.2407,0.3545,0.9409,0.0941,0.9783
55757,0.3545,0.2639,0.9666,0.1056,0.9914
55777,0.4451,0.1619,0.9626,0.1106,1.0024
55797,0.4993,0.0325,0.9377,0.1130,1.0062
55817,0.4802,-0.0974,0.9419,0.1062,1.0102
55837,0.4385,-0.2354,0.9529,0.1087,1.0166
55857,0.5010,0.0430,0.9419,0.0371,1.0306
55877,0.4854,-0.0869,0.9426,0.0383,1.0391
55897,0.4448,-0.2241,0.9497,0.0639,1.0446
55917,0.3726,-0.3589,0.9453,0.0875,1.0461
55937,0.2573,-0.4514,0.9307,0.1001,1.0409
55957,0.1174,-0.5239,0.9141,0.1128,1.0324
55977,0.0017,-0.5493,0.8960,0.1103,1.0243
55997,-0.1360,-0.5410,0.9058,0.1118,1.0221
56017,-0.2139,-0.4878,0.8826,0.0970,1.0140
56037,-0.2561,-0.3391,0.8777,0.0870,0.9936
56057,-0.3040,-0.1587,0.8857,0.1050,0.9675
56077,-0.2793,0.0566,0.8801,0.1265,0.9352
56097,-0.2688,0.2351,0.8733,0.1396,0.9131
56117,-0.2627,0.3645,0.8723,0.1358,0.9107
56137,-0.2207,0.4866,0.8882,0.1310,0.9289
56157,-0.1780,0.5063,0.8997,0.0987,0.9542
56177,-0.0898,0.5129,0.8865,0.0790,0.9695
56197,0.0349,0.4680,0.8801,0.0721,0.9717
56217,0.1721,0.4048,0.9165,0.0857,0.9767
56237,0.2910,0.3433,0.9534,0.0978,0.9894
56257,0.3845,0.2629,0.9709,0.1021,1.0044
56277,0.4570,0.1543,0.9612,0.1050,1.0136
56297,0.4861,0.0430,0.9419,0.1013,1.0163
56317,0.4932,-0.0869,0.9346,0.1036,1.0174
56337,0.4697,-0.2122,0.9512,0.1047,1.0248
56357,0.3804,-0.3284,0.9626,0.1056,1.0309
56377,0.2874,-0.4355,0.9314,0.1108,1.0282
56397,0.1709,-0.5159,0.9219,0.1141,1.0263
56417,0.0430,-0.5374,0.8960,0.1096,1.0185
56437,-0.0649,-0.5469,0.9014,0.1038,1.0177
56457,-0.1682,-0.5334,0.9080,0.0986,1.0215
56477,-0.2178,-0.4460,0.8792,0.0802,1.0105
56497,-0.2688,-0.3372,0.8667,0.0794,0.9906
56517,-0.2749,-0.1719,0.8904,0.0896,0.9682
56537,-0.2830,0.0225,0.8877,0.1162,0.9409
56557,-0.2703,0.1494,0.8733,0.1173,0.9193
56577,-0.2783,0.2632,0.8706,0.1161,0.9119
56597,-0.2610,0.3655,0.8718,0.1112,0.9175
56617,-0.2300,0.4687,0.8860,0.1087,0.9375
56637,-0.1960,0.5129,0.8916,0.0902,0.9619
56657,-0.1565,0.5088,0.8989,0.0649,0.9825
56677,-0.0764,0.4897,0.8828,0.0536,0.9882
56697,0.0139,0.4641,0.8757,0.0573,0.9852
56717,0.1289,0.4397,0.9077,0.0730,0.9885
56737,0.2246,0.3931,0.9358,0.0812,0.9964
56757,0.3025,0.3396,0.9595,0.0839,1.0084
56777,0.3794,0.2778,0.9680,0.0868,1.0206
56797,0.4246,0.2026,0.9648,0.0834,1.0289
56817,0.4673,0.1240,0.9563,0.0829,1.0341
56837,0.4954,0.0459,0.9441,0.0809,1.0368
56857,0.5029,-0.0339,0.9329,0.0779,1.0371
56877,0.4993,-0.1218,0.9402,0.0782,1.0407
56897,0.4746,-0.2161,0.9478,0.0807,1.0459
56917,0.4011,-0.3076,0.9375,0.0848,1.0437
56937,0.3459,-0.3831,0.9397,0.0854,1.0442
56957,0.3018,-0.4563,0.9272,0.0851,1.0460
56977,0.2065,-0.4966,0.9155,0.0846,1.0428
56997,0.1121,-0.5264,0.9106,0.0853,1.0392
57017,0.0554,-0.5486,0.8928,0.0776,1.0355
57037,-0.0237,-0.5562,0.8870,0.0758,1.0325
57057,0.3152,-0.4146,0.9358,0.0584,1.0404
57077,0.2581,-0.4680,0.9207,0.0215,1.0472
57097,0.1707,-0.5181,0.9219,0.0207,1.0539
57117,0.1218,-0.5281,0.9077,0.0274,1.0541
57137,0.0432,-0.5483,0.9026,0.0429,1.0529
57157,-0.0417,-0.5547,0.8845,0.0554,1.0471
57177,-0.0984,-0.5491,0.8938,0.0548,1.0457
57197,-0.1807,-0.5664,0.9045,0.0635,1.0524
57217,-0.2292,-0.5095,0.8865,0.0593,1.0471
57237,-0.2468,-0.4436,0.8630,0.0542,1.0303
57257,-0.2634,-0.3650,0.8577,0.0569,1.0084
57277,-0.2859,-0.2593,0.8755,0.0695,0.9875
57297,-0.3037,-0.1702,0.8884,0.0752,0.9709
57317,-0.3132,-0.0820,0.8774,0.0785,0.9528
57337,-0.3083,0.0303,0.8660,0.0876,0.9335
57357,-0.2937,0.1299,0.8743,0.0905,0.9226
57377,-0.2964,0.2070,0.8582,0.0866,0.9156
57397,-0.2959,0.2664,0.8765,0.0783,0.9223
57417,-0.2625,0.3469,0.8699,0.0793,0.9298
57437,-0.2463,0.4060,0.8706,0.0737,0.9421
57457,-0.2454,0.4753,0.8801,0.0723,0.9630
57477,-0.2073,0.5044,0.8901,0.0615,0.9835
